Time_ms,Latitude,Longitude,Altitude_m,Temp_C,Pressure_Pa,Acc_X,Acc_Y,Acc_Z,Gyro_X,Gyro_Y,Gyro_Z
8681,0.000000,0.000000,-0.01,24.91,1018.45,0.05,-0.17,0.99,-0.05,-0.08,0.05
8890,0.000000,0.000000,-0.06,24.89,1018.46,0.05,-0.16,0.99,0.01,-0.02,-0.07
8994,0.000000,0.000000,-0.12,24.84,1018.46,0.05,-0.16,0.99,-0.05,0.10,0.11
9099,0.000000,0.000000,-0.16,24.84,1018.46,0.05,-0.16,1.00,0.01,0.04,0.05
9214,0.000000,0.000000,-0.13,24.85,1018.46,0.05,-0.16,1.00,-0.05,0.04,-0.13
9319,0.000000,0.000000,-0.04,24.86,1018.45,0.05,-0.16,0.99,-0.18,-0.08,0.05
9427,0.000000,0.000000,-0.10,24.87,1018.46,0.05,-0.16,0.99,-0.11,-0.08,-0.01
9542,0.000000,0.000000,-0.07,24.88,1018.45,0.05,-0.16,1.00,-0.30,0.22,0.05
9647,0.000000,0.000000,-0.02,24.88,1018.45,0.06,-0.17,1.00,-0.48,-0.20,0.23
9903,0.000000,0.000000,0.01,24.89,1018.45,0.05,-0.16,1.00,-0.05,-0.02,-0.01
10007,0.000000,0.000000,-0.10,24.85,1018.46,0.04,-0.16,1.00,-0.05,-0.02,-0.01
10112,0.000000,0.000000,-0.08,24.84,1018.46,0.05,-0.16,1.00,0.07,0.04,0.05
10227,0.000000,0.000000,-0.06,24.85,1018.45,0.05,-0.16,0.99,0.01,-0.02,-0.01
10335,0.000000,0.000000,0.00,24.86,1018.45,0.05,-0.15,1.00,-0.11,-0.14,-0.13
10440,0.000000,0.000000,-0.01,24.86,1018.45,0.05,-0.16,1.00,0.07,-0.20,-0.07
10555,0.000000,0.000000,0.01,24.86,1018.44,0.05,-0.16,1.00,0.07,-0.02,-0.07
10660,0.000000,0.000000,-0.03,24.86,1018.45,0.05,-0.16,0.99,0.07,-0.02,-0.01
10900,0.000000,0.000000,-0.01,24.87,1018.45,0.05,-0.16,1.00,-0.05,0.04,0.05
11004,0.000000,0.000000,-0.02,24.82,1018.45,0.05,-0.16,0.99,-0.05,-0.08,-0.13
11111,0.000000,0.000000,-0.07,24.81,1018.45,0.05,-0.16,1.00,0.07,-0.02,-0.07
11216,0.000000,0.000000,-0.01,24.81,1018.45,0.05,-0.16,1.00,-0.05,-0.02,-0.13
11332,0.000000,0.000000,0.01,24.80,1018.45,0.05,-0.16,1.00,-0.05,-0.02,-0.07
11437,0.000000,0.000000,0.08,24.80,1018.44,0.05,-0.16,0.99,0.01,-0.02,-0.07
11552,0.000000,0.000000,0.04,24.79,1018.44,0.05,-0.16,0.99,0.07,0.04,-0.13
11657,0.000000,0.000000,0.07,24.79,1018.44,0.05,-0.16,0.99,-0.11,-0.08,-0.25
11916,0.000000,0.000000,0.11,24.79,1018.43,0.05,-0.16,0.99,0.01,0.04,-0.01
12025,0.000000,0.000000,0.04,24.74,1018.44,0.05,-0.16,0.99,-0.11,0.04,0.05
12130,0.000000,0.000000,0.07,24.74,1018.44,0.05,-0.16,0.99,0.13,-0.08,-0.07
12246,0.000000,0.000000,0.08,24.74,1018.44,0.05,-0.16,1.00,-0.05,-0.02,0.11
12351,0.000000,0.000000,0.07,24.75,1018.44,0.05,-0.16,1.00,0.13,0.04,0.05
12466,0.000000,0.000000,0.07,24.76,1018.44,0.05,-0.16,0.99,0.01,-0.02,0.17
12571,0.000000,0.000000,0.05,24.76,1018.44,0.05,-0.16,0.99,0.01,-0.14,-0.13
12697,0.000000,0.000000,0.09,24.76,1018.44,0.05,-0.16,0.99,0.01,-0.14,-0.01
12929,0.000000,0.000000,0.12,24.76,1018.43,0.05,-0.16,1.00,0.13,-0.02,-0.01
13033,0.000000,0.000000,0.01,24.72,1018.45,0.05,-0.16,0.99,0.01,-0.02,-0.07
13144,0.000000,0.000000,0.02,24.71,1018.45,0.05,-0.16,0.99,0.01,-0.08,0.11
13249,0.000000,0.000000,0.09,24.72,1018.44,0.05,-0.16,0.99,0.07,-0.02,0.17
13364,0.000000,0.000000,0.04,24.72,1018.45,0.05,-0.16,0.99,0.07,0.04,0.11
13469,0.000000,0.000000,0.08,24.73,1018.44,0.05,-0.16,0.99,0.07,-0.08,0.11
13585,0.000000,0.000000,0.08,24.73,1018.43,0.05,-0.16,1.00,0.07,-0.02,0.11
13692,0.000000,0.000000,0.10,24.73,1018.44,0.05,-0.16,0.99,0.01,0.16,-0.07
13945,0.000000,0.000000,0.08,24.73,1018.44,0.05,-0.16,0.99,0.01,0.10,0.05
14048,0.000000,0.000000,-0.03,24.69,1018.45,0.05,-0.16,1.00,-0.05,-0.08,-0.01
14153,0.000000,0.000000,-0.04,24.68,1018.45,0.05,-0.16,0.99,0.01,-0.08,0.17
14268,0.000000,0.000000,0.03,24.68,1018.45,0.05,-0.16,0.99,0.01,-0.08,0.05
14373,0.000000,0.000000,0.05,24.69,1018.44,0.05,-0.16,0.99,-0.05,0.04,-0.01
14481,0.000000,0.000000,0.08,24.69,1018.44,0.05,-0.16,0.99,0.01,-0.02,0.05
14596,0.000000,0.000000,0.08,24.69,1018.44,0.05,-0.16,0.99,0.01,0.10,0.17
14705,0.000000,0.000000,0.12,24.69,1018.43,0.05,-0.16,0.99,-0.11,-0.02,0.05
14961,0.000000,0.000000,0.13,24.69,1018.43,0.05,-0.16,0.99,-0.11,-0.02,0.05
15068,0.000000,0.000000,0.08,24.64,1018.44,0.05,-0.16,0.99,0.01,-0.02,-0.01
15175,0.000000,0.000000,0.03,24.63,1018.44,0.05,-0.16,0.99,0.07,0.04,-0.07
15280,0.000000,0.000000,-0.03,24.63,1018.45,0.05,-0.16,0.99,0.07,-0.02,0.05
15388,0.000000,0.000000,-0.03,24.64,1018.45,0.05,-0.16,0.99,0.01,-0.08,0.11
15503,0.000000,0.000000,0.02,24.64,1018.45,0.05,-0.16,0.99,0.07,-0.02,0.11
15608,0.000000,0.000000,0.05,24.64,1018.44,0.05,-0.16,0.99,-0.05,-0.02,0.05
15724,0.000000,0.000000,0.11,24.64,1018.44,0.05,-0.16,0.99,-0.05,-0.02,0.05
15964,0.000000,0.000000,0.13,24.63,1018.43,0.05,-0.16,0.99,0.01,0.04,0.11
16085,0.000000,0.000000,0.03,24.58,1018.45,0.05,-0.16,0.99,0.01,0.04,0.17
16201,0.000000,0.000000,-0.04,24.57,1018.45,0.05,-0.16,1.00,0.07,-0.14,-0.19
16308,0.000000,0.000000,-0.05,24.57,1018.45,0.05,-0.16,0.99,0.01,-0.02,0.05
16413,0.000000,0.000000,-0.04,24.57,1018.45,0.05,-0.16,0.99,-0.05,-0.08,-0.01
16529,0.000000,0.000000,0.03,24.57,1018.44,0.05,-0.16,0.99,0.01,0.04,-0.01
16633,0.000000,0.000000,0.06,24.57,1018.44,0.05,-0.16,0.99,0.07,-0.02,-0.01
16743,0.000000,0.000000,0.04,24.56,1018.45,0.05,-0.16,0.99,0.01,0.10,0.17
16977,0.000000,0.000000,0.02,24.55,1018.45,0.05,-0.16,0.99,0.01,0.04,-0.07
17099,0.000000,0.000000,-0.06,24.50,1018.46,0.05,-0.16,0.99,-0.05,-0.08,-0.01
17206,0.000000,0.000000,-0.08,24.49,1018.46,0.05,-0.16,0.99,-0.11,-0.08,0.05
17322,0.000000,0.000000,-0.10,24.49,1018.46,0.05,-0.16,0.99,0.01,-0.08,0.17
17427,0.000000,0.000000,-0.07,24.49,1018.46,0.05,-0.16,0.99,-0.11,0.04,-0.07
17542,0.000000,0.000000,-0.04,24.49,1018.45,0.05,-0.16,0.99,0.07,-0.08,0.29
17647,0.000000,0.000000,0.01,24.49,1018.45,0.05,-0.16,0.99,-0.11,-0.02,0.11
17763,0.000000,0.000000,0.05,24.48,1018.44,0.05,-0.16,0.99,0.01,-0.08,0.05
17989,0.000000,0.000000,0.08,24.49,1018.44,0.05,-0.16,0.99,0.01,0.10,-0.01
18110,0.000000,0.000000,-0.01,24.44,1018.45,0.05,-0.16,0.99,0.07,-0.02,-0.13
18223,0.000000,0.000000,0.02,24.44,1018.44,0.05,-0.16,0.99,0.01,-0.02,-0.01
18330,0.000000,0.000000,0.09,24.44,1018.44,0.05,-0.16,0.99,0.01,-0.08,-0.07
18445,0.000000,0.000000,0.12,24.45,1018.43,0.05,-0.16,0.99,-0.05,-0.08,-0.01
18550,0.000000,0.000000,0.11,24.46,1018.44,0.05,-0.16,0.99,0.07,-0.02,-0.01
18666,0.000000,0.000000,0.05,24.46,1018.44,0.05,-0.16,0.99,0.01,0.10,-0.07
18768,0.000000,0.000000,0.07,24.46,1018.44,0.05,-0.16,0.99,0.07,0.10,-0.01
19002,0.000000,0.000000,0.10,24.46,1018.44,0.05,-0.16,0.99,0.01,-0.08,0.05
19123,0.000000,0.000000,0.04,24.41,1018.44,0.05,-0.16,0.99,-0.05,0.10,0.23
19239,0.000000,0.000000,0.04,24.40,1018.45,0.05,-0.16,0.99,0.01,0.04,0.05
19344,0.000000,0.000000,0.04,24.40,1018.44,0.05,-0.16,0.99,0.01,-0.02,-0.01
19459,0.000000,0.000000,0.04,24.41,1018.45,0.05,-0.16,0.99,0.01,0.10,-0.01
19564,0.000000,0.000000,0.02,24.41,1018.45,0.05,-0.16,0.99,-0.05,-0.08,0.05
19672,0.000000,0.000000,0.06,24.41,1018.44,0.05,-0.16,0.99,-0.05,-0.02,-0.01
19787,0.000000,0.000000,0.07,24.41,1018.44,0.05,-0.16,0.99,-0.05,-0.02,-0.01
20005,0.000000,0.000000,0.11,24.41,1018.43,0.05,-0.16,0.99,0.07,-0.02,0.05
20126,0.000000,0.000000,-0.03,24.36,1018.45,0.05,-0.16,0.99,-0.05,-0.02,-0.07
20242,0.000000,0.000000,-0.04,24.36,1018.45,0.05,-0.16,0.99,0.07,-0.02,0.05
20347,0.000000,0.000000,-0.01,24.36,1018.45,0.05,-0.16,0.99,0.07,0.04,-0.01
20462,0.000000,0.000000,-0.01,24.37,1018.45,0.05,-0.16,0.99,0.01,0.10,-0.13
20570,0.000000,0.000000,-0.01,24.37,1018.45,0.05,-0.16,0.99,0.01,-0.02,-0.13
20675,0.000000,0.000000,0.05,24.37,1018.44,0.05,-0.16,0.99,0.07,-0.08,-0.01
20785,0.000000,0.000000,0.00,24.37,1018.45,0.05,-0.16,0.99,0.01,-0.08,0.05
21019,0.000000,0.000000,0.04,24.37,1018.44,0.05,-0.16,0.99,0.07,0.04,-0.01
21140,0.000000,0.000000,-0.01,24.32,1018.45,0.05,-0.16,0.99,0.01,-0.02,-0.07
21256,0.000000,0.000000,-0.04,24.32,1018.45,0.05,-0.16,0.99,-0.05,-0.02,-0.01
21365,0.000000,0.000000,0.02,24.32,1018.44,0.05,-0.16,0.99,-0.11,0.10,-0.01
21472,0.000000,0.000000,0.09,24.33,1018.44,0.05,-0.16,0.99,0.07,-0.02,-0.13
21577,0.000000,0.000000,0.03,24.33,1018.44,0.05,-0.16,0.99,-0.05,0.04,-0.13
21693,0.000000,0.000000,0.08,24.33,1018.44,0.05,-0.16,0.99,-0.11,-0.02,-0.13
21797,0.000000,0.000000,0.09,24.33,1018.44,0.05,-0.16,0.99,-0.05,-0.02,-0.01
22032,0.000000,0.000000,0.09,24.32,1018.44,0.05,-0.16,0.99,0.01,-0.08,0.05
22153,0.000000,0.000000,-0.03,24.28,1018.45,0.05,-0.16,0.99,0.07,0.10,-0.07
22261,0.000000,0.000000,-0.01,24.27,1018.45,0.05,-0.16,0.99,-0.05,-0.08,-0.07
22376,0.000000,0.000000,0.04,24.28,1018.44,0.05,-0.16,0.99,0.07,0.10,0.11
22481,0.000000,0.000000,0.04,24.28,1018.44,0.05,-0.16,0.99,0.01,-0.02,-0.01
22597,0.000000,0.000000,0.07,24.28,1018.44,0.05,-0.16,0.99,0.01,-0.02,-0.01
22701,0.000000,0.000000,0.11,24.28,1018.44,0.05,-0.16,0.99,0.01,-0.02,-0.01
22805,0.000000,0.000000,0.12,24.28,1018.43,0.05,-0.16,0.99,-0.05,0.04,-0.13
23039,0.000000,0.000000,0.08,24.28,1018.44,0.05,-0.16,0.99,0.01,-0.02,0.11
23141,0.000000,0.000000,-0.00,24.24,1018.45,0.05,-0.16,0.99,0.01,-0.02,-0.01
23246,0.000000,0.000000,-0.01,24.23,1018.45,0.05,-0.16,1.00,0.01,-0.02,0.11
23362,0.000000,0.000000,-0.01,24.24,1018.45,0.05,-0.16,0.99,0.07,0.10,-0.19
23467,0.000000,0.000000,0.02,24.24,1018.44,0.05,-0.16,1.00,0.01,-0.02,-0.01
23582,0.000000,0.000000,0.02,24.24,1018.44,0.05,-0.16,1.00,0.07,0.04,0.11
23687,0.000000,0.000000,-0.02,24.25,1018.45,0.05,-0.16,0.99,-0.05,-0.08,0.05
23803,0.000000,0.000000,0.05,24.25,1018.44,0.05,-0.16,1.00,0.01,-0.08,0.05
24045,0.000000,0.000000,0.09,24.25,1018.44,0.05,-0.16,0.99,-0.05,0.04,-0.01
24167,0.000000,0.000000,0.05,24.20,1018.44,0.05,-0.16,1.00,0.13,-0.08,0.05
24282,0.000000,0.000000,-0.02,24.20,1018.45,0.05,-0.16,0.99,0.13,0.10,-0.01
24387,0.000000,0.000000,0.01,24.20,1018.45,0.05,-0.16,0.99,-0.05,-0.02,0.11
24499,0.000000,0.000000,0.04,24.21,1018.44,0.05,-0.16,0.99,0.07,0.04,0.11
24607,0.000000,0.000000,0.04,24.21,1018.44,0.05,-0.16,0.99,0.07,-0.08,0.05
24714,0.000000,0.000000,-0.00,24.21,1018.45,0.05,-0.16,0.99,0.07,0.10,-0.07
24818,0.000000,0.000000,0.05,24.21,1018.44,0.05,-0.16,0.99,0.01,0.04,-0.01
25052,0.000000,0.000000,0.06,24.21,1018.44,0.05,-0.16,0.99,0.01,-0.08,-0.13
25174,0.000000,0.000000,-0.04,24.17,1018.45,0.05,-0.16,0.99,-0.05,-0.02,0.05
25289,0.000000,0.000000,-0.03,24.16,1018.45,0.05,-0.16,0.99,-0.05,-0.02,-0.07
25394,0.000000,0.000000,-0.03,24.17,1018.45,0.05,-0.16,0.99,0.13,0.04,0.17
25510,0.000000,0.000000,0.04,24.17,1018.44,0.05,-0.16,0.99,-0.05,-0.08,-0.13
25618,0.000000,0.000000,0.00,24.17,1018.45,0.05,-0.16,0.99,-0.11,-0.08,-0.07
25723,0.000000,0.000000,0.06,24.17,1018.44,0.05,-0.16,0.99,0.01,0.10,0.17
25838,0.000000,0.000000,0.06,24.17,1018.44,0.05,-0.16,0.99,0.07,-0.02,-0.07
26056,0.000000,0.000000,0.04,24.17,1018.44,0.05,-0.16,0.99,0.01,0.04,-0.07
26177,0.000000,0.000000,-0.05,24.13,1018.45,0.05,-0.16,0.99,0.01,-0.08,0.05
26293,0.000000,0.000000,0.01,24.12,1018.45,0.05,-0.16,0.99,-0.05,0.04,-0.13
26398,0.000000,0.000000,-0.02,24.13,1018.45,0.05,-0.16,0.99,0.01,0.10,0.05
26505,0.000000,0.000000,-0.01,24.13,1018.44,0.05,-0.16,0.99,0.01,-0.14,0.05
26621,0.000000,0.000000,0.04,24.14,1018.44,0.05,-0.16,0.99,0.01,0.04,0.05
26726,0.000000,0.000000,0.05,24.14,1018.44,0.05,-0.16,0.99,0.07,-0.08,0.05
26829,0.000000,0.000000,0.02,24.14,1018.45,0.05,-0.16,0.99,-0.05,-0.02,0.11
27064,0.000000,0.000000,0.07,24.14,1018.44,0.05,-0.16,0.99,-0.05,-0.02,-0.13
27185,0.000000,0.000000,-0.02,24.10,1018.45,0.05,-0.16,0.99,0.01,0.04,0.11
27301,0.000000,0.000000,0.02,24.10,1018.45,0.05,-0.16,0.99,0.01,-0.08,-0.13
27408,0.000000,0.000000,-0.01,24.11,1018.45,0.05,-0.16,1.00,-0.05,-0.02,-0.01
27513,0.000000,0.000000,-0.02,24.11,1018.45,0.05,-0.16,0.99,0.01,0.04,0.05
27625,0.000000,0.000000,0.00,24.11,1018.45,0.05,-0.16,0.99,0.01,-0.02,-0.01
27732,0.000000,0.000000,-0.02,24.11,1018.45,0.05,-0.16,0.99,0.07,0.04,0.11
27848,0.000000,0.000000,0.04,24.11,1018.44,0.05,-0.16,0.99,-0.11,-0.08,-0.19
28066,0.000000,0.000000,0.03,24.11,1018.44,0.05,-0.16,0.99,-0.05,-0.02,-0.07
28168,0.000000,0.000000,-0.04,24.07,1018.46,0.05,-0.16,0.99,0.07,0.04,-0.07
28273,0.000000,0.000000,-0.09,24.06,1018.46,0.05,-0.16,0.99,0.07,0.04,-0.01
28388,0.000000,0.000000,-0.01,24.06,1018.45,0.05,-0.16,1.00,0.07,0.10,0.05
28493,0.000000,0.000000,-0.04,24.07,1018.46,0.05,-0.16,0.99,0.01,0.10,0.11
28609,0.000000,0.000000,-0.02,24.07,1018.45,0.05,-0.16,0.99,0.07,-0.02,-0.13
28713,0.000000,0.000000,-0.08,24.07,1018.46,0.05,-0.16,0.99,0.01,0.10,-0.19
28823,0.000000,0.000000,-0.04,24.07,1018.45,0.05,-0.16,0.99,0.01,-0.02,0.05
29092,0.000000,0.000000,0.01,24.07,1018.45,0.05,-0.16,0.99,0.01,0.10,0.05
29213,0.000000,0.000000,-0.06,24.02,1018.46,0.05,-0.16,0.99,0.13,-0.08,0.11
29329,0.000000,0.000000,-0.09,24.02,1018.46,0.05,-0.16,0.99,-0.05,-0.02,0.05
29434,0.000000,0.000000,-0.12,24.02,1018.46,0.05,-0.16,0.99,0.01,-0.08,-0.25
29549,0.000000,0.000000,-0.01,24.03,1018.45,0.05,-0.16,0.99,0.01,0.16,0.23
29654,0.000000,0.000000,0.01,24.03,1018.45,0.05,-0.16,1.00,0.01,-0.08,-0.01
29770,0.000000,0.000000,-0.01,24.03,1018.45,0.05,-0.16,0.99,-0.05,0.04,-0.07
29877,0.000000,0.000000,-0.01,24.04,1018.45,0.05,-0.16,0.99,0.01,-0.02,-0.07
30105,0.000000,0.000000,-0.01,24.04,1018.45,0.05,-0.16,0.99,-0.05,-0.02,-0.25
30227,0.000000,0.000000,-0.04,23.99,1018.46,0.05,-0.16,0.99,-0.05,-0.02,0.05
30342,0.000000,0.000000,-0.07,23.98,1018.46,0.05,-0.16,0.99,0.01,0.04,-0.01
30447,0.000000,0.000000,-0.03,23.99,1018.45,0.05,-0.16,0.99,-0.05,0.04,0.05
30563,0.000000,0.000000,-0.00,23.99,1018.45,0.05,-0.16,1.00,-0.05,-0.08,0.05
30668,0.000000,0.000000,0.02,24.00,1018.45,0.05,-0.16,0.99,0.01,0.04,0.17
30786,0.000000,0.000000,-0.03,23.99,1018.45,0.05,-0.16,0.99,0.01,0.10,-0.01
30888,0.000000,0.000000,-0.07,23.99,1018.46,0.05,-0.16,0.99,0.01,0.04,-0.07
31116,0.000000,0.000000,-0.10,23.99,1018.46,0.05,-0.16,0.99,-0.05,-0.14,0.05
31237,0.000000,0.000000,-0.15,23.94,1018.47,0.05,-0.16,0.99,0.01,-0.02,0.11
31353,0.000000,0.000000,-0.18,23.94,1018.47,0.05,-0.16,0.99,0.07,0.04,-0.01
31458,0.000000,0.000000,-0.12,23.94,1018.47,0.05,-0.16,0.99,-0.05,-0.08,0.05
31565,0.000000,0.000000,-0.12,23.95,1018.46,0.05,-0.16,1.00,0.01,0.10,-0.07
31681,0.000000,0.000000,-0.16,23.96,1018.47,0.05,-0.16,1.00,0.01,0.16,-0.07
31786,0.000000,0.000000,-0.13,23.97,1018.46,0.05,-0.16,1.00,-0.05,-0.02,-0.01
31901,0.000000,0.000000,-0.11,23.97,1018.46,0.05,-0.16,0.99,0.01,0.04,-0.01
32129,0.000000,0.000000,-0.10,23.97,1018.46,0.05,-0.16,0.99,0.01,0.04,0.11
32251,0.000000,0.000000,-0.09,23.93,1018.46,0.05,-0.16,0.99,0.07,-0.02,0.05
32366,0.000000,0.000000,-0.08,23.93,1018.46,0.05,-0.16,0.99,-0.05,-0.02,-0.01
32474,0.000000,0.000000,-0.06,23.94,1018.46,0.05,-0.16,0.99,0.01,0.04,0.11
32579,0.000000,0.000000,-0.12,23.94,1018.46,0.05,-0.16,0.99,-0.11,-0.02,0.05
32695,0.000000,0.000000,-0.13,23.94,1018.46,0.05,-0.16,0.99,0.07,0.04,-0.01
32804,0.000000,0.000000,-0.12,23.95,1018.46,0.05,-0.16,1.00,-0.05,-0.02,-0.07
32909,0.000000,0.000000,-0.07,23.95,1018.45,0.05,-0.16,0.99,0.07,-0.02,-0.01
33137,0.000000,0.000000,-0.05,23.95,1018.45,0.05,-0.16,0.99,-0.05,-0.02,0.05
33259,0.000000,0.000000,-0.15,23.90,1018.47,0.05,-0.16,0.99,0.07,-0.08,-0.07
33366,0.000000,0.000000,-0.16,23.89,1018.47,0.05,-0.16,0.99,0.01,-0.02,-0.01
33482,0.000000,0.000000,-0.17,23.90,1018.46,0.05,-0.16,0.99,-0.05,-0.02,-0.01
33586,0.000000,0.000000,-0.15,23.90,1018.47,0.05,-0.16,0.99,0.01,0.04,-0.01
33702,0.000000,0.000000,-0.09,23.91,1018.46,0.05,-0.16,0.99,0.07,0.10,0.05
33807,0.000000,0.000000,-0.08,23.91,1018.46,0.05,-0.16,0.99,0.07,0.04,-0.07
33919,0.000000,0.000000,-0.08,23.91,1018.45,0.05,-0.16,0.99,0.07,-0.02,-0.01
34152,0.000000,0.000000,0.02,23.90,1018.45,0.05,-0.16,0.99,0.01,0.04,0.11
34274,0.000000,0.000000,-0.09,23.86,1018.46,0.05,-0.16,0.99,0.07,-0.02,-0.01
34389,0.000000,0.000000,-0.16,23.86,1018.47,0.05,-0.16,0.99,0.13,-0.08,-0.07
34494,0.000000,0.000000,-0.20,23.86,1018.48,0.05,-0.16,0.99,-0.05,-0.02,-0.01
34610,0.000000,0.000000,-0.21,23.87,1018.47,0.05,-0.16,0.99,-0.05,-0.02,0.05
34715,0.000000,0.000000,-0.17,23.87,1018.46,0.05,-0.16,1.00,0.01,0.04,-0.01
34818,0.000000,0.000000,-0.10,23.87,1018.46,0.05,-0.16,0.99,-0.05,-0.02,0.11
34920,0.000000,0.000000,-0.08,23.87,1018.46,0.05,-0.16,0.99,0.07,0.10,-0.07
35154,0.000000,0.000000,-0.11,23.87,1018.46,0.05,-0.16,0.99,-0.05,-0.02,-0.07
35276,0.000000,0.000000,-0.14,23.82,1018.46,0.05,-0.16,0.99,0.01,-0.02,-0.07
35391,0.000000,0.000000,-0.13,23.82,1018.46,0.05,-0.16,0.99,0.01,-0.02,-0.13
35496,0.000000,0.000000,-0.12,23.82,1018.46,0.05,-0.16,0.99,-0.05,-0.02,-0.01
35612,0.000000,0.000000,-0.10,23.83,1018.46,0.05,-0.16,0.99,0.07,-0.14,-0.01
35717,0.000000,0.000000,-0.10,23.83,1018.46,0.05,-0.16,0.99,0.01,0.10,0.05
35824,0.000000,0.000000,-0.10,23.83,1018.46,0.05,-0.16,0.99,-0.05,0.04,-0.01
35941,0.000000,0.000000,-0.11,23.83,1018.46,0.05,-0.16,0.99,0.07,0.04,-0.13
36174,0.000000,0.000000,-0.03,23.83,1018.45,0.05,-0.16,0.99,0.01,-0.08,-0.13
36295,0.000000,0.000000,-0.15,23.79,1018.47,0.05,-0.16,0.99,-0.05,0.04,-0.07
36411,0.000000,0.000000,-0.17,23.78,1018.46,0.05,-0.16,0.99,0.01,0.10,-0.19
36516,0.000000,0.000000,-0.10,23.78,1018.46,0.05,-0.16,0.99,0.07,0.04,0.05
36623,0.000000,0.000000,-0.07,23.79,1018.46,0.05,-0.16,0.99,0.01,-0.08,0.11
36739,0.000000,0.000000,-0.06,23.79,1018.46,0.05,-0.16,0.99,0.01,0.10,0.05
36848,0.000000,0.000000,-0.03,23.79,1018.45,0.05,-0.16,0.99,0.01,-0.02,0.11
36957,0.000000,0.000000,-0.09,23.79,1018.46,0.05,-0.16,0.99,0.07,-0.02,-0.01
37189,0.000000,0.000000,-0.11,23.79,1018.46,0.05,-0.16,0.99,0.07,-0.08,-0.01
37291,0.000000,0.000000,-0.14,23.74,1018.47,0.05,-0.16,0.99,-0.05,-0.02,-0.07
37396,0.000000,0.000000,-0.19,23.74,1018.47,0.05,-0.16,0.99,-0.05,0.10,-0.01
37503,0.000000,0.000000,-0.21,23.74,1018.48,0.05,-0.16,0.99,0.07,-0.02,0.11
37619,0.000000,0.000000,-0.20,23.75,1018.47,0.05,-0.16,0.99,0.01,-0.02,-0.01
37724,0.000000,0.000000,-0.15,23.75,1018.47,0.05,-0.16,0.99,0.07,0.04,-0.01
37839,0.000000,0.000000,-0.11,23.75,1018.46,0.05,-0.16,0.99,0.01,-0.08,0.05
37946,0.000000,0.000000,-0.07,23.75,1018.46,0.05,-0.16,0.99,-0.05,0.10,-0.07
38195,0.000000,0.000000,-0.05,23.75,1018.45,0.05,-0.16,0.99,-0.05,-0.02,0.11
38316,0.000000,0.000000,-0.13,23.70,1018.46,0.05,-0.16,0.99,-0.05,-0.02,0.11
38424,0.000000,0.000000,-0.12,23.69,1018.46,0.05,-0.16,0.99,-0.05,0.04,0.05
38539,0.000000,0.000000,-0.07,23.69,1018.46,0.05,-0.16,0.99,0.13,0.04,-0.01
38644,0.000000,0.000000,-0.03,23.69,1018.45,0.05,-0.16,0.99,0.07,-0.02,-0.01
38760,0.000000,0.000000,-0.03,23.69,1018.45,0.05,-0.16,0.99,0.01,-0.02,-0.01
38869,0.000000,0.000000,-0.08,23.69,1018.46,0.05,-0.16,0.99,0.13,0.04,0.05
38974,0.000000,0.000000,-0.12,23.68,1018.46,0.05,-0.16,0.99,-0.05,-0.02,-0.19
39197,0.000000,0.000000,-0.11,23.68,1018.46,0.05,-0.16,0.99,0.01,0.10,-0.07
39299,0.000000,0.000000,-0.21,23.62,1018.48,0.05,-0.16,0.99,0.01,-0.08,-0.07
39404,0.000000,0.000000,-0.20,23.61,1018.47,0.05,-0.16,0.99,0.01,0.04,-0.07
39519,0.000000,0.000000,-0.21,23.61,1018.47,0.05,-0.16,0.99,0.01,-0.08,0.11
39624,0.000000,0.000000,-0.14,23.61,1018.47,0.05,-0.16,0.99,-0.05,-0.02,0.05
39740,0.000000,0.000000,-0.14,23.60,1018.46,0.05,-0.16,0.99,0.01,0.04,0.05
39845,0.000000,0.000000,-0.05,23.60,1018.45,0.05,-0.16,0.99,0.01,-0.02,-0.19
39956,0.000000,0.000000,-0.04,23.60,1018.45,0.05,-0.16,0.99,0.07,-0.02,0.11
40203,0.000000,0.000000,-0.03,23.60,1018.45,0.05,-0.16,0.99,0.01,0.04,0.05
40309,0.000000,0.000000,-0.13,23.56,1018.47,0.05,-0.16,0.99,0.07,0.04,-0.01
40417,0.000000,0.000000,-0.14,23.55,1018.46,0.05,-0.16,0.99,0.01,-0.08,-0.01
40522,0.000000,0.000000,-0.14,23.55,1018.46,0.05,-0.16,0.99,0.01,-0.02,0.05
40637,0.000000,0.000000,-0.09,23.55,1018.46,0.05,-0.16,0.99,0.01,0.04,-0.01
40742,0.000000,0.000000,-0.10,23.55,1018.46,0.05,-0.16,0.99,0.01,-0.08,-0.01
40854,0.000000,0.000000,-0.10,23.55,1018.45,0.05,-0.16,0.99,-0.05,0.04,0.17
40963,0.000000,0.000000,-0.06,23.54,1018.45,0.05,-0.16,0.99,-0.05,0.10,0.11
41210,0.000000,0.000000,-0.07,23.54,1018.46,0.05,-0.16,0.99,0.01,0.04,-0.01
41331,0.000000,0.000000,-0.14,23.48,1018.47,0.05,-0.16,0.99,0.01,0.10,-0.13
41447,0.000000,0.000000,-0.16,23.46,1018.46,0.05,-0.16,0.99,0.07,-0.02,-0.01
41552,0.000000,0.000000,-0.11,23.46,1018.46,0.05,-0.16,0.99,0.01,-0.02,0.05
41668,0.000000,0.000000,-0.05,23.46,1018.45,0.05,-0.16,0.99,0.13,0.04,-0.01
41775,0.000000,0.000000,-0.02,23.46,1018.45,0.05,-0.16,0.99,0.01,-0.08,0.11
41880,0.000000,0.000000,-0.07,23.45,1018.46,0.05,-0.16,0.99,-0.05,-0.02,0.05
41991,0.000000,0.000000,-0.07,23.44,1018.46,0.05,-0.16,0.99,0.01,-0.02,0.05
42214,0.000000,0.000000,-0.07,23.44,1018.46,0.05,-0.16,0.99,0.01,0.04,-0.01
42335,0.000000,0.000000,-0.16,23.38,1018.47,0.05,-0.16,0.99,-0.11,0.04,-0.13
42451,0.000000,0.000000,-0.20,23.37,1018.47,0.05,-0.16,0.99,0.07,-0.02,0.05
42558,0.000000,0.000000,-0.20,23.36,1018.47,0.05,-0.16,0.99,0.07,0.04,0.05
42663,0.000000,0.000000,-0.19,23.36,1018.47,0.05,-0.16,0.99,0.01,-0.08,0.11
42779,0.000000,0.000000,-0.20,23.35,1018.47,0.05,-0.16,0.99,0.13,-0.02,-0.07
42888,0.000000,0.000000,-0.16,23.35,1018.47,0.05,-0.16,0.99,0.01,0.04,0.11
42999,0.000000,0.000000,-0.16,23.35,1018.47,0.05,-0.16,0.99,0.01,0.04,0.05
43221,0.000000,0.000000,-0.18,23.34,1018.47,0.05,-0.16,0.99,0.07,-0.02,0.23
43343,0.000000,0.000000,-0.25,23.30,1018.48,0.05,-0.16,0.99,0.01,-0.02,-0.01
43452,0.000000,0.000000,-0.21,23.29,1018.47,0.05,-0.16,0.99,0.01,-0.02,0.17
43559,0.000000,0.000000,-0.19,23.29,1018.47,0.05,-0.16,0.99,0.07,-0.02,-0.07
43675,0.000000,0.000000,-0.13,23.30,1018.46,0.05,-0.16,1.00,0.01,-0.02,0.11
43780,0.000000,0.000000,-0.08,23.30,1018.46,0.05,-0.16,0.99,-0.05,0.04,-0.07
43895,0.000000,0.000000,-0.13,23.30,1018.46,0.05,-0.16,0.99,0.07,-0.08,-0.07
44006,0.000000,0.000000,-0.17,23.30,1018.47,0.05,-0.16,0.99,-0.05,0.10,-0.07
44229,0.000000,0.000000,-0.16,23.30,1018.47,0.05,-0.16,0.99,0.01,-0.02,0.11
44330,0.000000,0.000000,-0.29,23.26,1018.48,0.05,-0.16,0.99,0.07,0.04,0.17
44435,0.000000,0.000000,-0.24,23.25,1018.48,0.05,-0.16,0.99,0.01,-0.08,-0.01
44551,0.000000,0.000000,-0.21,23.26,1018.48,0.05,-0.16,0.99,0.07,-0.02,0.05
44656,0.000000,0.000000,-0.24,23.26,1018.47,0.05,-0.16,0.99,0.07,-0.02,0.11
44771,0.000000,0.000000,-0.17,23.27,1018.47,0.05,-0.16,0.99,-0.05,-0.08,0.05
44880,0.000000,0.000000,-0.15,23.27,1018.47,0.05,-0.16,0.99,-0.05,-0.02,0.05
44991,0.000000,0.000000,-0.14,23.28,1018.47,0.05,-0.16,1.00,0.07,0.04,0.05
45239,0.000000,0.000000,-0.15,23.28,1018.47,0.05,-0.16,0.99,0.01,-0.08,-0.07
45360,0.000000,0.000000,-0.22,23.23,1018.47,0.05,-0.16,0.99,0.13,0.04,-0.01
45476,0.000000,0.000000,-0.23,23.23,1018.48,0.05,-0.16,0.99,-0.05,0.04,0.05
45581,0.000000,0.000000,-0.26,23.24,1018.48,0.05,-0.16,0.99,0.01,0.04,-0.13
45696,0.000000,0.000000,-0.23,23.24,1018.47,0.05,-0.16,0.99,0.13,-0.08,-0.13
45801,0.000000,0.000000,-0.22,23.25,1018.48,0.05,-0.16,0.99,0.01,-0.08,-0.01
45909,0.000000,0.000000,-0.21,23.25,1018.47,0.05,-0.16,0.99,0.07,0.04,0.11
46014,0.000000,0.000000,-0.22,23.25,1018.47,0.05,-0.16,0.99,0.01,-0.02,0.11
46253,0.000000,0.000000,-0.22,23.25,1018.47,0.05,-0.16,0.99,0.07,-0.02,0.05
46375,0.000000,0.000000,-0.30,23.20,1018.48,0.05,-0.16,0.99,0.07,-0.02,-0.07
46490,0.000000,0.000000,-0.25,23.20,1018.48,0.05,-0.16,0.99,-0.05,-0.02,-0.01
46603,0.000000,0.000000,-0.24,23.20,1018.47,0.05,-0.16,0.99,0.07,0.04,-0.07
46710,0.000000,0.000000,-0.19,23.20,1018.47,0.05,-0.16,0.99,-0.05,-0.08,0.11
46817,0.000000,0.000000,-0.19,23.21,1018.47,0.05,-0.16,0.99,-0.05,0.04,-0.07
46927,0.000000,0.000000,-0.19,23.21,1018.47,0.05,-0.16,0.99,0.01,-0.02,-0.01
47038,0.000000,0.000000,-0.22,23.22,1018.48,0.05,-0.16,0.99,-0.05,0.04,-0.01
47261,0.000000,0.000000,-0.23,23.22,1018.48,0.05,-0.16,0.99,-0.05,-0.02,0.05
47382,0.000000,0.000000,-0.30,23.18,1018.48,0.05,-0.16,0.99,0.07,0.04,-0.13
47498,0.000000,0.000000,-0.26,23.18,1018.48,0.05,-0.16,0.99,0.07,-0.02,0.05
47603,0.000000,0.000000,-0.19,23.18,1018.48,0.05,-0.16,0.99,-0.05,0.10,0.05
47710,0.000000,0.000000,-0.20,23.19,1018.47,0.05,-0.16,0.99,-0.05,-0.02,0.05
47826,0.000000,0.000000,-0.12,23.20,1018.46,0.05,-0.16,0.99,-0.05,-0.08,0.23
47931,0.000000,0.000000,-0.09,23.20,1018.46,0.05,-0.16,1.00,-0.11,-0.02,0.11
48041,0.000000,0.000000,-0.11,23.20,1018.46,0.05,-0.16,0.99,0.01,-0.08,-0.07
48264,0.000000,0.000000,-0.11,23.20,1018.46,0.05,-0.16,0.99,0.01,-0.08,0.11
48385,0.000000,0.000000,-0.25,23.16,1018.48,0.05,-0.16,0.99,0.01,0.04,-0.01
48493,0.000000,0.000000,-0.26,23.15,1018.48,0.05,-0.16,0.99,0.07,0.04,-0.01
48609,0.000000,0.000000,-0.27,23.16,1018.49,0.05,-0.16,1.00,-0.05,0.10,0.05
48713,0.000000,0.000000,-0.26,23.17,1018.48,0.05,-0.16,0.99,-0.05,-0.14,-0.13
48829,0.000000,0.000000,-0.27,23.18,1018.48,0.05,-0.16,0.99,0.13,0.10,-0.01
48938,0.000000,0.000000,-0.22,23.18,1018.47,0.05,-0.16,0.99,0.07,0.04,-0.13
49049,0.000000,0.000000,-0.22,23.18,1018.47,0.05,-0.16,0.99,-0.05,0.04,0.11
49271,0.000000,0.000000,-0.24,23.18,1018.48,0.05,-0.16,0.99,0.01,0.04,0.05
49373,0.000000,0.000000,-0.35,23.13,1018.49,0.05,-0.16,1.00,0.07,0.04,0.11
49478,0.000000,0.000000,-0.29,23.12,1018.48,0.05,-0.16,0.99,-0.11,-0.02,-0.01
49594,0.000000,0.000000,-0.28,23.13,1018.48,0.05,-0.16,0.99,-0.05,-0.08,-0.07
49695,0.000000,0.000000,-0.28,23.13,1018.48,0.05,-0.16,0.99,0.07,-0.08,-0.01
49802,0.000000,0.000000,-0.27,23.13,1018.48,0.05,-0.16,0.99,-0.05,0.04,0.05
49917,0.000000,0.000000,-0.26,23.13,1018.48,0.05,-0.16,1.00,0.07,-0.08,-0.13
50028,0.000000,0.000000,-0.24,23.13,1018.48,0.05,-0.16,0.99,-0.11,0.04,0.11
50276,0.000000,0.000000,-0.23,23.13,1018.48,0.05,-0.16,0.99,0.07,-0.02,-0.13
50397,0.000000,0.000000,-0.36,23.09,1018.49,0.05,-0.16,0.99,0.07,-0.02,0.17
50513,0.000000,0.000000,-0.35,23.08,1018.49,0.05,-0.16,0.99,-0.05,-0.02,-0.01
50618,0.000000,0.000000,-0.36,23.08,1018.49,0.05,-0.16,0.99,0.07,-0.08,0.11
50733,0.000000,0.000000,-0.33,23.09,1018.49,0.05,-0.16,0.99,-0.11,-0.02,-0.07
50838,0.000000,0.000000,-0.32,23.09,1018.49,0.05,-0.16,0.99,0.07,-0.08,0.11
50959,0.000000,0.000000,-0.29,23.09,1018.48,0.05,-0.16,0.99,0.07,0.04,-0.01
51061,0.000000,0.000000,-0.27,23.09,1018.48,0.05,-0.16,0.99,0.01,-0.02,-0.13
51284,0.000000,0.000000,-0.24,23.09,1018.48,0.05,-0.16,0.99,0.07,-0.02,-0.07
51405,0.000000,0.000000,-0.32,23.05,1018.49,0.05,-0.16,0.99,-0.05,-0.02,0.11
51521,0.000000,0.000000,-0.37,23.04,1018.49,0.05,-0.16,0.99,0.07,0.04,-0.07
51626,0.000000,0.000000,-0.36,23.04,1018.49,0.05,-0.16,0.99,0.07,-0.14,0.11
51741,0.000000,0.000000,-0.31,23.04,1018.49,0.05,-0.16,0.99,0.07,-0.02,0.05
51849,0.000000,0.000000,-0.39,23.05,1018.49,0.05,-0.16,0.99,-0.05,0.10,-0.13
51957,0.000000,0.000000,-0.37,23.05,1018.49,0.05,-0.16,0.99,0.07,0.04,-0.01
52064,0.000000,0.000000,-0.29,23.05,1018.48,0.05,-0.16,0.99,0.07,-0.02,0.11
52287,0.000000,0.000000,-0.31,23.05,1018.48,0.05,-0.16,0.99,0.01,0.04,0.17
52408,0.000000,0.000000,-0.35,23.01,1018.49,0.05,-0.16,0.99,0.13,-0.02,-0.01
52524,0.000000,0.000000,-0.41,23.01,1018.49,0.05,-0.16,0.99,0.01,0.04,-0.01
52629,0.000000,0.000000,-0.34,23.01,1018.49,0.05,-0.16,0.99,0.01,-0.02,0.05
52737,0.000000,0.000000,-0.37,23.02,1018.49,0.05,-0.16,0.99,-0.05,-0.02,0.05
52849,0.000000,0.000000,-0.32,23.02,1018.49,0.05,-0.16,0.99,0.07,0.04,0.05
52973,0.000000,0.000000,-0.29,23.02,1018.48,0.05,-0.16,0.99,-0.05,0.04,0.11
53094,0.000000,0.000000,-0.32,23.02,1018.49,0.05,-0.16,0.99,0.07,-0.08,0.05
53294,0.000000,0.000000,-0.31,23.02,1018.49,0.05,-0.16,0.99,0.01,-0.02,-0.13
53416,0.000000,0.000000,-0.38,22.98,1018.49,0.05,-0.16,0.99,0.13,-0.02,0.05
53531,0.000000,0.000000,-0.34,22.97,1018.49,0.05,-0.16,0.99,-0.05,0.04,-0.01
53639,0.000000,0.000000,-0.38,22.98,1018.49,0.05,-0.16,0.99,0.07,0.04,-0.07
53744,0.000000,0.000000,-0.36,22.98,1018.49,0.05,-0.16,0.99,0.01,-0.02,-0.01
53859,0.000000,0.000000,-0.35,22.98,1018.49,0.05,-0.16,0.99,0.07,-0.02,0.05
53970,0.000000,0.000000,-0.29,22.98,1018.48,0.05,-0.16,0.99,0.01,0.04,-0.07
54075,0.000000,0.000000,-0.27,22.98,1018.48,0.05,-0.16,0.99,0.07,-0.02,-0.07
54298,0.000000,0.000000,-0.28,22.98,1018.48,0.05,-0.16,0.99,0.07,-0.02,0.11
54399,0.000000,0.000000,-0.37,22.94,1018.49,0.05,-0.16,0.99,0.01,-0.08,0.05
54504,0.000000,0.000000,-0.36,22.93,1018.49,0.05,-0.16,0.99,0.07,0.16,0.17
54620,0.000000,0.000000,-0.35,22.94,1018.49,0.05,-0.16,0.99,0.01,-0.02,-0.01
54725,0.000000,0.000000,-0.38,22.94,1018.49,0.05,-0.16,0.99,0.01,0.04,0.11
54841,0.000000,0.000000,-0.37,22.95,1018.49,0.05,-0.16,0.99,0.13,0.10,0.05
54952,0.000000,0.000000,-0.39,22.95,1018.49,0.05,-0.16,0.99,0.07,0.04,0.05
55060,0.000000,0.000000,-0.32,22.96,1018.49,0.05,-0.16,0.99,0.13,0.16,-0.07
55308,0.000000,0.000000,-0.31,22.96,1018.49,0.05,-0.16,0.99,0.01,0.04,0.05
55429,0.000000,0.000000,-0.44,22.91,1018.50,0.05,-0.16,0.99,0.07,0.04,-0.01
55545,0.000000,0.000000,-0.38,22.91,1018.49,0.05,-0.16,0.99,0.01,0.04,0.17
55650,0.000000,0.000000,-0.34,22.92,1018.49,0.05,-0.16,0.99,0.01,0.10,0.05
55766,0.000000,0.000000,-0.33,22.92,1018.49,0.05,-0.16,0.99,0.01,-0.08,0.11
55870,0.000000,0.000000,-0.29,22.93,1018.49,0.05,-0.16,0.99,-0.05,0.04,0.11
55972,0.000000,0.000000,-0.30,22.93,1018.48,0.05,-0.16,0.99,0.01,-0.02,-0.07
56076,0.000000,0.000000,-0.31,22.93,1018.48,0.05,-0.16,0.99,0.01,-0.02,0.05
56321,0.000000,0.000000,-0.30,22.93,1018.48,0.05,-0.16,0.99,-0.05,0.04,0.05
56442,0.000000,0.000000,-0.40,22.88,1018.50,0.05,-0.16,0.99,0.01,-0.08,-0.13
56558,0.000000,0.000000,-0.39,22.87,1018.49,0.05,-0.16,0.99,0.13,-0.02,-0.01
56663,0.000000,0.000000,-0.37,22.87,1018.49,0.05,-0.16,0.99,0.01,0.04,-0.01
56779,0.000000,0.000000,-0.41,22.88,1018.49,0.05,-0.16,0.99,0.07,-0.14,-0.07
56886,0.000000,0.000000,-0.32,22.88,1018.48,0.05,-0.16,0.99,0.01,-0.02,0.11
56991,0.000000,0.000000,-0.28,22.88,1018.48,0.05,-0.16,0.99,0.01,0.10,-0.01
57107,0.000000,0.000000,-0.23,22.88,1018.47,0.05,-0.16,0.99,0.07,-0.02,-0.01
57330,0.000000,0.000000,-0.18,22.88,1018.47,0.05,-0.16,0.99,0.13,0.04,-0.01
57451,0.000000,0.000000,-0.33,22.84,1018.49,0.05,-0.16,0.99,0.07,-0.02,0.05
57563,0.000000,0.000000,-0.34,22.83,1018.49,0.05,-0.16,0.99,-0.05,-0.02,-0.01
57667,0.000000,0.000000,-0.32,22.84,1018.49,0.05,-0.16,0.99,-0.05,-0.08,0.05
57775,0.000000,0.000000,-0.35,22.84,1018.49,0.05,-0.16,0.99,0.07,0.04,-0.07
57891,0.000000,0.000000,-0.33,22.84,1018.49,0.05,-0.16,0.99,-0.05,0.04,0.11
58002,0.000000,0.000000,-0.37,22.84,1018.49,0.05,-0.16,1.00,0.01,0.04,0.05
58107,0.000000,0.000000,-0.33,22.84,1018.49,0.05,-0.16,0.99,0.01,-0.08,0.05
58330,0.000000,0.000000,-0.32,22.84,1018.49,0.05,-0.16,0.99,0.01,-0.08,-0.01
58451,0.000000,0.000000,-0.45,22.79,1018.50,0.05,-0.16,0.99,0.01,0.04,-0.13
58567,0.000000,0.000000,-0.42,22.79,1018.50,0.05,-0.16,0.99,0.07,-0.02,0.17
58675,0.000000,0.000000,-0.40,22.79,1018.49,0.05,-0.16,0.99,0.01,-0.02,0.11
58779,0.000000,0.000000,-0.38,22.80,1018.49,0.05,-0.16,0.99,-0.05,0.04,-0.01
58895,0.000000,0.000000,-0.34,22.80,1018.49,0.05,-0.16,0.99,0.07,0.10,-0.01
59002,-36.744537,174.741968,-0.32,22.80,1018.49,0.05,-0.16,0.99,0.07,0.04,-0.19
59115,-36.744537,174.741968,-0.33,22.79,1018.49,0.05,-0.16,1.00,-0.05,-0.08,0.23
59356,-36.744537,174.741968,-0.32,22.79,1018.49,0.05,-0.16,0.99,-0.05,-0.02,0.11
59458,-36.744537,174.741968,-0.39,22.74,1018.50,0.05,-0.16,0.99,-0.05,0.10,-0.07
59569,-36.744537,174.741968,-0.45,22.73,1018.50,0.05,-0.16,0.99,0.01,-0.02,0.17
59679,-36.744537,174.741968,-0.43,22.73,1018.50,0.05,-0.16,1.00,-0.11,0.04,-0.07
59790,-36.744537,174.741968,-0.44,22.73,1018.50,0.05,-0.16,0.99,0.07,-0.02,-0.07
59901,-36.744537,174.741968,-0.42,22.73,1018.50,0.05,-0.16,0.99,0.01,0.10,0.11
60003,-36.744541,174.741967,-0.40,22.74,1018.49,0.05,-0.16,0.99,-0.05,0.10,-0.07
60108,-36.744541,174.741967,-0.36,22.74,1018.49,0.05,-0.16,0.99,0.07,-0.02,-0.07
60366,-36.744541,174.741967,-0.31,22.74,1018.49,0.05,-0.16,0.99,0.07,0.04,-0.01
60477,-36.744541,174.741967,-0.41,22.70,1018.50,0.05,-0.16,0.99,0.01,-0.02,-0.13
60599,-36.744541,174.741967,-0.45,22.70,1018.50,0.05,-0.16,0.99,0.01,0.04,0.05
60715,-36.744541,174.741967,-0.43,22.71,1018.50,0.05,-0.16,1.00,0.07,-0.02,0.05
60825,-36.744541,174.741967,-0.41,22.72,1018.50,0.05,-0.16,0.99,0.01,0.04,-0.01
60948,-36.744542,174.741966,-0.41,22.72,1018.50,0.05,-0.16,0.99,0.01,-0.02,-0.01
61055,-36.744542,174.741966,-0.39,22.72,1018.50,0.05,-0.16,0.99,0.07,-0.02,-0.01
61166,-36.744542,174.741966,-0.40,22.73,1018.50,0.05,-0.16,0.99,0.01,0.16,0.05
61383,-36.744542,174.741966,-0.42,22.73,1018.50,0.05,-0.16,0.99,0.01,0.04,-0.13
61493,-36.744542,174.741966,-0.51,22.68,1018.51,0.05,-0.16,0.99,0.01,-0.02,-0.13
61615,-36.744542,174.741966,-0.51,22.68,1018.51,0.05,-0.16,0.99,0.07,-0.08,-0.01
61731,-36.744542,174.741966,-0.50,22.68,1018.50,0.05,-0.16,0.99,-0.05,-0.02,0.05
61841,-36.744542,174.741966,-0.46,22.69,1018.50,0.05,-0.16,0.99,0.07,0.04,-0.07
61958,-36.744543,174.741966,-0.37,22.70,1018.49,0.05,-0.16,0.99,0.07,-0.08,-0.07
62062,-36.744543,174.741966,-0.37,22.70,1018.49,0.05,-0.16,0.99,0.01,0.04,-0.01
62167,-36.744543,174.741966,-0.37,22.70,1018.49,0.05,-0.16,0.99,0.07,-0.08,0.11
62384,-36.744543,174.741966,-0.32,22.70,1018.49,0.05,-0.16,0.99,0.07,0.04,-0.01
62486,-36.744543,174.741966,-0.43,22.65,1018.50,0.05,-0.16,0.99,0.01,0.04,-0.13
62597,-36.744543,174.741966,-0.42,22.65,1018.50,0.05,-0.16,0.99,-0.05,0.04,-0.07
62704,-36.744543,174.741966,-0.44,22.65,1018.50,0.05,-0.16,0.99,-0.05,-0.08,0.05
62815,-36.744543,174.741966,-0.45,22.66,1018.50,0.05,-0.16,0.99,0.01,-0.02,-0.07
62920,-36.744543,174.741966,-0.44,22.66,1018.50,0.05,-0.16,0.99,0.01,0.04,0.05
63021,-36.744547,174.741961,-0.42,22.66,1018.50,0.05,-0.16,0.99,0.07,-0.02,-0.07
63142,-36.744547,174.741961,-0.44,22.66,1018.50,0.05,-0.16,0.99,0.07,-0.08,0.11
63392,-36.744547,174.741961,-0.48,22.67,1018.51,0.05,-0.16,0.99,0.01,-0.02,-0.07
63494,-36.744547,174.741961,-0.53,22.62,1018.51,0.05,-0.16,0.99,0.07,-0.08,-0.01
63605,-36.744547,174.741961,-0.55,22.62,1018.51,0.05,-0.16,0.99,0.07,-0.02,0.05
63715,-36.744547,174.741961,-0.55,22.63,1018.51,0.05,-0.16,0.99,0.07,-0.02,0.05
63820,-36.744547,174.741961,-0.46,22.64,1018.50,0.05,-0.16,0.99,0.07,-0.02,0.17
63936,-36.744547,174.741961,-0.46,22.65,1018.50,0.05,-0.16,0.99,0.01,0.04,-0.07
64044,-36.744552,174.741956,-0.39,22.66,1018.50,0.05,-0.16,0.99,-0.05,-0.08,-0.07
64160,-36.744552,174.741956,-0.42,22.66,1018.50,0.05,-0.16,0.99,0.07,-0.02,0.23
64401,-36.744552,174.741956,-0.45,22.66,1018.50,0.05,-0.16,0.99,-0.05,0.04,-0.01
64512,-36.744552,174.741956,-0.50,22.62,1018.51,0.05,-0.16,0.99,-0.05,0.10,-0.01
64633,-36.744552,174.741956,-0.48,22.62,1018.51,0.05,-0.16,0.99,0.07,0.04,-0.07
64749,-36.744552,174.741956,-0.44,22.63,1018.50,0.05,-0.16,0.99,0.01,0.04,0.05
64854,-36.744552,174.741956,-0.43,22.64,1018.50,0.05,-0.16,0.99,0.13,0.04,-0.01
64963,-36.744554,174.741952,-0.42,22.64,1018.50,0.05,-0.16,0.99,0.01,0.04,-0.01
65068,-36.744554,174.741952,-0.39,22.64,1018.50,0.05,-0.16,0.99,-0.05,-0.08,-0.07
65179,-36.744554,174.741952,-0.39,22.65,1018.49,0.05,-0.16,0.99,0.01,0.10,-0.01
65418,-36.744554,174.741952,-0.37,22.65,1018.49,0.05,-0.16,1.00,0.01,0.10,0.05
65525,-36.744554,174.741952,-0.45,22.61,1018.50,0.05,-0.16,0.99,0.07,-0.08,-0.07
65632,-36.744554,174.741952,-0.44,22.60,1018.50,0.05,-0.16,0.99,-0.05,-0.02,-0.01
65743,-36.744554,174.741952,-0.46,22.61,1018.50,0.05,-0.16,1.00,-0.05,-0.02,0.11
65851,-36.744554,174.741952,-0.43,22.62,1018.50,0.05,-0.16,1.00,0.01,-0.02,-0.07
65973,-36.744551,174.741948,-0.46,22.63,1018.50,0.05,-0.16,0.99,0.01,-0.02,-0.19
66075,-36.744551,174.741948,-0.42,22.63,1018.50,0.05,-0.16,0.99,0.13,-0.02,-0.19
66180,-36.744551,174.741948,-0.41,22.63,1018.50,0.05,-0.16,0.99,0.07,-0.08,0.05
66429,-36.744551,174.741948,-0.42,22.63,1018.50,0.05,-0.16,0.99,0.07,0.04,-0.01
66540,-36.744551,174.741948,-0.43,22.59,1018.50,0.05,-0.16,0.99,0.01,-0.08,-0.13
66662,-36.744551,174.741948,-0.44,22.58,1018.50,0.05,-0.16,0.99,-0.05,-0.08,0.17
66769,-36.744551,174.741948,-0.46,22.59,1018.50,0.05,-0.16,0.99,0.01,-0.02,-0.01
66885,-36.744551,174.741948,-0.42,22.60,1018.50,0.05,-0.16,0.99,0.07,-0.02,-0.01
66991,-36.744552,174.741944,-0.39,22.60,1018.49,0.05,-0.16,0.99,0.01,0.04,-0.07
67107,-36.744552,174.741944,-0.42,22.60,1018.50,0.05,-0.16,0.99,0.01,0.04,0.05
67218,-36.744552,174.741944,-0.44,22.60,1018.50,0.05,-0.16,0.99,0.01,0.04,0.05
67434,-36.744552,174.741944,-0.45,22.60,1018.50,0.05,-0.16,0.99,0.07,0.04,-0.01
67536,-36.744552,174.741944,-0.48,22.55,1018.51,0.05,-0.16,0.99,0.01,-0.02,0.11
67647,-36.744552,174.741944,-0.55,22.54,1018.51,0.05,-0.16,0.99,0.01,0.04,0.11
67758,-36.744552,174.741944,-0.47,22.54,1018.50,0.05,-0.16,1.00,0.07,-0.02,-0.07
67869,-36.744552,174.741944,-0.46,22.55,1018.50,0.05,-0.16,0.99,0.07,0.04,0.11
67987,-36.744554,174.741941,-0.46,22.55,1018.50,0.05,-0.16,0.99,0.07,-0.08,-0.07
68098,-36.744554,174.741941,-0.49,22.55,1018.51,0.05,-0.16,0.99,0.01,-0.02,0.11
68210,-36.744554,174.741941,-0.45,22.54,1018.50,0.05,-0.16,0.99,0.01,-0.02,-0.13
68443,-36.744554,174.741941,-0.44,22.54,1018.50,0.05,-0.16,0.99,0.07,0.10,-0.01
68554,-36.744554,174.741941,-0.49,22.49,1018.51,0.05,-0.16,0.99,0.07,-0.02,-0.07
68661,-36.744554,174.741941,-0.49,22.48,1018.51,0.05,-0.16,0.99,0.01,0.10,-0.07
68768,-36.744554,174.741941,-0.46,22.49,1018.50,0.05,-0.16,0.99,-0.05,0.04,-0.01
68879,-36.744554,174.741941,-0.43,22.49,1018.50,0.05,-0.16,0.99,-0.05,0.04,0.05
68991,-36.744554,174.741941,-0.44,22.50,1018.50,0.05,-0.16,0.99,0.07,0.16,-0.13
69099,-36.744554,174.741941,-0.44,22.50,1018.50,0.05,-0.16,0.99,0.01,-0.08,0.05
69210,-36.744554,174.741941,-0.47,22.50,1018.50,0.05,-0.16,0.99,0.01,-0.02,0.05
69465,-36.744554,174.741941,-0.44,22.50,1018.50,0.05,-0.16,0.99,0.01,-0.02,-0.13
69576,-36.744554,174.741941,-0.51,22.46,1018.51,0.05,-0.16,0.99,-0.05,0.04,0.11
69697,-36.744554,174.741941,-0.51,22.45,1018.51,0.05,-0.16,0.99,0.01,-0.08,0.17
69813,-36.744554,174.741941,-0.45,22.46,1018.50,0.05,-0.16,0.99,0.19,-0.02,-0.01
69921,-36.744554,174.741941,-0.39,22.47,1018.49,0.05,-0.16,0.99,0.01,-0.02,-0.01
70023,-36.744553,174.741939,-0.35,22.47,1018.49,0.05,-0.16,0.99,0.01,-0.02,-0.01
70138,-36.744553,174.741939,-0.32,22.47,1018.49,0.05,-0.16,0.99,0.07,-0.02,0.11
70249,-36.744553,174.741939,-0.35,22.47,1018.49,0.05,-0.16,0.99,0.01,-0.08,0.11
70482,-36.744553,174.741939,-0.34,22.47,1018.49,0.05,-0.16,0.99,0.07,0.10,-0.01
70593,-36.744553,174.741939,-0.45,22.43,1018.50,0.05,-0.16,0.99,-0.05,-0.02,0.05
70715,-36.744553,174.741939,-0.51,22.43,1018.51,0.05,-0.16,0.99,0.01,0.04,0.23
70822,-36.744553,174.741939,-0.47,22.44,1018.51,0.05,-0.16,0.99,0.07,-0.02,-0.01
70940,-36.744555,174.741938,-0.53,22.45,1018.51,0.05,-0.16,0.99,-0.05,0.04,-0.01
71045,-36.744555,174.741938,-0.48,22.45,1018.51,0.05,-0.16,0.99,0.07,-0.02,0.05
71160,-36.744555,174.741938,-0.54,22.46,1018.51,0.05,-0.16,1.00,0.01,0.10,0.17
71271,-36.744555,174.741938,-0.50,22.46,1018.51,0.05,-0.16,0.99,-0.05,0.04,0.11
71488,-36.744555,174.741938,-0.50,22.46,1018.51,0.05,-0.16,0.99,-0.05,0.04,0.17
71590,-36.744555,174.741938,-0.53,22.41,1018.51,0.05,-0.16,0.99,0.01,0.04,0.11
71701,-36.744555,174.741938,-0.55,22.40,1018.51,0.05,-0.16,0.99,-0.05,-0.02,0.11
71813,-36.744555,174.741938,-0.50,22.41,1018.51,0.05,-0.16,0.99,0.01,-0.02,0.05
71921,-36.744555,174.741938,-0.46,22.41,1018.50,0.05,-0.16,0.99,-0.05,0.04,-0.01
72023,-36.744557,174.741937,-0.39,22.42,1018.50,0.05,-0.16,0.99,-0.05,0.04,0.05
72139,-36.744557,174.741937,-0.43,22.42,1018.50,0.05,-0.16,0.99,-0.05,-0.02,0.05
72246,-36.744557,174.741937,-0.39,22.42,1018.50,0.05,-0.16,0.99,-0.05,-0.08,-0.07
72507,-36.744557,174.741937,-0.41,22.43,1018.50,0.05,-0.16,0.99,0.01,-0.02,0.17
72618,-36.744557,174.741937,-0.47,22.38,1018.50,0.05,-0.16,0.99,0.07,-0.08,0.11
72740,-36.744557,174.741937,-0.48,22.37,1018.51,0.05,-0.16,0.99,0.01,0.04,0.05
72855,-36.744557,174.741937,-0.49,22.38,1018.51,0.05,-0.16,0.99,0.13,0.04,-0.01
72966,-36.744559,174.741936,-0.49,22.38,1018.51,0.05,-0.16,0.99,-0.05,0.04,-0.07
73068,-36.744559,174.741936,-0.54,22.39,1018.51,0.05,-0.16,0.99,0.13,-0.02,-0.07
73175,-36.744559,174.741936,-0.53,22.39,1018.51,0.05,-0.16,0.99,-0.05,0.10,-0.07
73291,-36.744559,174.741936,-0.52,22.40,1018.51,0.05,-0.16,0.99,0.01,0.04,-0.01
73530,-36.744559,174.741936,-0.54,22.40,1018.51,0.05,-0.16,0.99,-0.05,-0.02,-0.07
73641,-36.744559,174.741936,-0.61,22.35,1018.52,0.05,-0.16,0.99,0.07,-0.02,-0.01
73763,-36.744559,174.741936,-0.59,22.35,1018.52,0.05,-0.16,0.99,-0.05,-0.02,0.05
73878,-36.744559,174.741936,-0.54,22.36,1018.51,0.05,-0.16,0.99,0.01,-0.08,0.11
73983,-36.744559,174.741938,-0.52,22.36,1018.51,0.05,-0.16,0.99,-0.05,-0.02,0.05
74094,-36.744559,174.741938,-0.46,22.37,1018.51,0.05,-0.16,0.99,0.01,-0.02,0.05
74205,-36.744559,174.741938,-0.44,22.37,1018.50,0.05,-0.16,0.99,0.07,-0.08,0.11
74316,-36.744559,174.741938,-0.38,22.36,1018.50,0.05,-0.16,0.99,0.07,0.04,-0.13
74532,-36.744559,174.741938,-0.40,22.36,1018.50,0.05,-0.16,0.99,0.01,0.04,0.05
74643,-36.744559,174.741938,-0.51,22.31,1018.51,0.05,-0.16,0.99,-0.05,0.04,-0.01
74745,-36.744559,174.741938,-0.52,22.30,1018.51,0.05,-0.16,0.99,-0.11,0.04,-0.01
74856,-36.744559,174.741938,-0.49,22.30,1018.51,0.05,-0.16,0.99,-0.05,0.04,0.11
74982,-36.744557,174.741941,-0.48,22.31,1018.51,0.05,-0.16,0.99,-0.05,-0.02,-0.07
75094,-36.744557,174.741941,-0.48,22.31,1018.51,0.05,-0.16,0.99,0.01,-0.08,0.05
75216,-36.744557,174.741941,-0.50,22.31,1018.51,0.05,-0.16,0.99,-0.05,0.10,0.11
75331,-36.744557,174.741941,-0.48,22.31,1018.50,0.05,-0.16,0.99,-0.05,-0.08,0.17
75548,-36.744557,174.741941,-0.48,22.31,1018.51,0.05,-0.16,0.99,0.07,-0.02,-0.01
75649,-36.744557,174.741941,-0.57,22.26,1018.52,0.05,-0.16,0.99,0.13,-0.02,0.05
75754,-36.744557,174.741941,-0.58,22.25,1018.52,0.05,-0.16,1.00,0.07,-0.02,-0.07
75870,-36.744557,174.741941,-0.54,22.26,1018.52,0.05,-0.16,0.99,-0.05,-0.02,-0.01
75971,-36.744555,174.741942,-0.55,22.26,1018.51,0.05,-0.16,0.99,0.01,0.04,-0.01
76072,-36.744555,174.741942,-0.56,22.26,1018.51,0.05,-0.16,0.99,-0.11,-0.02,-0.25
76183,-36.744555,174.741942,-0.57,22.26,1018.51,0.05,-0.16,0.99,0.01,0.04,-0.13
76290,-36.744555,174.741942,-0.57,22.26,1018.52,0.05,-0.16,0.99,0.13,-0.02,0.05
76552,-36.744555,174.741942,-0.60,22.26,1018.52,0.05,-0.16,0.99,0.07,0.04,-0.01
76662,-36.744555,174.741942,-0.72,22.22,1018.53,0.05,-0.16,0.99,-0.11,-0.08,0.17
76784,-36.744555,174.741942,-0.66,22.21,1018.53,0.05,-0.16,0.99,0.01,-0.02,-0.07
76900,-36.744555,174.741942,-0.64,22.22,1018.52,0.05,-0.16,0.99,0.07,-0.08,-0.19
77002,-36.744555,174.741942,-0.60,22.22,1018.52,0.05,-0.16,0.99,0.01,0.04,0.05
77114,-36.744555,174.741942,-0.56,22.23,1018.51,0.05,-0.16,0.99,-0.05,-0.02,0.11
77225,-36.744555,174.741942,-0.53,22.23,1018.51,0.05,-0.16,0.99,0.01,-0.02,-0.01
77336,-36.744555,174.741942,-0.47,22.22,1018.51,0.04,-0.17,1.01,0.25,0.16,-0.07
77552,-36.744555,174.741942,-0.49,22.22,1018.51,0.05,-0.17,1.01,0.07,0.04,0.17
77663,-36.744555,174.741942,-0.59,22.18,1018.52,0.05,-0.15,0.99,-0.05,0.04,-0.07
77785,-36.744555,174.741942,-0.57,22.17,1018.52,0.05,-0.16,1.00,0.13,-0.14,-0.19
77900,-36.744555,174.741942,-0.59,22.18,1018.52,0.04,-0.16,1.00,0.01,0.04,0.11
78005,-36.744557,174.741941,-0.59,22.18,1018.52,0.05,-0.15,0.99,0.13,-0.08,-0.19
78118,-36.744557,174.741941,-0.54,22.19,1018.52,0.04,-0.16,1.00,0.07,-0.02,0.05
78226,-36.744557,174.741941,-0.54,22.19,1018.52,0.05,-0.15,0.99,0.07,0.04,0.17
78336,-36.744557,174.741941,-0.54,22.20,1018.51,0.05,-0.16,0.99,0.01,-0.14,-0.19
78576,-36.744557,174.741941,-0.55,22.20,1018.51,0.05,-0.16,1.00,-0.11,0.28,-0.07
78686,-36.744557,174.741941,-0.66,22.15,1018.53,0.05,-0.17,1.00,0.19,0.10,0.05
78788,-36.744557,174.741941,-0.65,22.15,1018.53,0.06,-0.16,0.99,0.07,0.10,-0.13
78899,-36.744557,174.741941,-0.66,22.16,1018.53,0.05,-0.16,1.00,-0.11,0.04,-0.01
79002,-36.744557,174.741942,-0.67,22.16,1018.53,0.05,-0.16,1.00,0.01,-0.02,-0.25
79111,-36.744557,174.741942,-0.62,22.17,1018.52,0.05,-0.17,0.99,-0.05,-0.02,0.11
79222,-36.744557,174.741942,-0.59,22.18,1018.52,0.06,-0.16,0.99,-0.05,-0.02,0.05
79327,-36.744557,174.741942,-0.54,22.18,1018.51,0.05,-0.16,0.99,0.01,-0.02,-0.13
79577,-36.744557,174.741942,-0.51,22.18,1018.51,0.05,-0.16,0.98,-0.05,0.10,-0.01
79678,-36.744557,174.741942,-0.60,22.14,1018.52,0.05,-0.16,0.99,-0.05,0.41,0.17
79789,-36.744557,174.741942,-0.64,22.14,1018.53,0.06,-0.15,0.98,0.07,0.16,-0.01
79900,-36.744557,174.741942,-0.61,22.15,1018.52,0.05,-0.18,1.00,0.19,0.04,0.17
80002,-36.744555,174.741945,-0.57,22.15,1018.52,0.05,-0.16,0.99,0.01,-0.02,-0.13
80108,-36.744555,174.741945,-0.58,22.16,1018.52,0.05,-0.17,0.99,0.01,0.04,-0.01
80223,-36.744555,174.741945,-0.56,22.17,1018.52,0.05,-0.16,0.99,-0.11,0.10,-0.13
80331,-36.744555,174.741945,-0.58,22.17,1018.52,0.05,-0.17,0.99,-0.11,0.10,0.05
80592,-36.744555,174.741945,-0.55,22.17,1018.51,0.06,-0.17,1.00,0.01,0.16,-0.68
80703,-36.744555,174.741945,-0.60,22.13,1018.52,0.05,-0.18,1.00,-0.66,-0.63,0.84
80824,-36.744555,174.741945,-0.63,22.13,1018.52,0.10,-0.21,0.98,1.41,0.71,-1.23
80942,-36.744553,174.741946,-0.68,22.14,1018.53,0.05,-0.19,0.98,0.19,0.53,0.42
81063,-36.744553,174.741946,-0.59,22.14,1018.52,0.07,-0.14,1.02,0.37,-0.57,-0.19
81165,-36.744553,174.741946,-0.61,22.15,1018.52,0.03,-0.22,1.00,0.01,-0.87,0.54
81277,-36.744553,174.741946,-0.56,22.15,1018.52,0.07,-0.14,0.98,0.50,0.28,0.17
81385,-36.744553,174.741946,-0.51,22.15,1018.51,0.06,-0.18,0.99,0.07,-0.02,-0.13
81601,-36.744553,174.741946,-0.53,22.15,1018.51,-0.05,0.47,0.05,-176.70,281.93,54.99
81712,-36.744553,174.741946,-0.59,22.12,1018.52,-0.68,-0.15,0.83,-41.88,171.87,-105.19
81833,-36.744553,174.741946,-0.57,22.12,1018.52,-0.15,-0.83,1.63,146.17,-197.58,-247.82
81958,-36.744549,174.741948,-0.56,22.14,1018.52,0.37,0.56,0.52,59.21,2.36,60.60
82065,-36.744549,174.741948,-0.56,22.15,1018.52,0.05,0.16,0.55,203.24,-231.73,-61.17
82175,-36.744549,174.741948,-0.57,22.16,1018.52,0.90,-0.03,0.81,-188.65,-101.12,55.54
82286,-36.744549,174.741948,-0.55,22.17,1018.51,0.23,-0.39,1.09,-235.85,219.67,-136.84
82397,-36.744549,174.741948,-0.62,22.17,1018.52,-0.02,-0.64,1.19,-140.60,88.15,-115.07
82613,-36.744549,174.741948,-0.59,22.17,1018.52,0.54,-0.39,0.82,51.29,-12.28,-10.32
82724,-36.744549,174.741948,-0.66,22.13,1018.53,0.46,0.03,0.78,110.74,-137.28,18.16
82826,-36.744549,174.741948,-0.67,22.13,1018.53,0.48,-0.19,1.05,-22.98,1.69,8.22
82931,-36.744549,174.741948,-0.62,22.14,1018.53,0.37,-0.14,1.04,-17.86,-19.78,-30.99
83044,-36.744543,174.741955,-0.68,22.16,1018.53,0.36,-0.02,0.78,-23.77,24.13,-42.57
83154,-36.744543,174.741955,-0.63,22.17,1018.52,0.45,0.18,0.70,25.01,-45.26,-68.24
83265,-36.744543,174.741955,-0.62,22.18,1018.52,0.45,0.10,0.77,-17.55,-6.00,-81.47
83376,-36.744543,174.741955,-0.58,22.18,1018.52,0.71,0.08,0.81,-26.03,-40.02,-66.60
83617,-36.744543,174.741955,-0.54,22.18,1018.51,0.51,0.31,0.83,34.09,-55.75,-3.00
83728,-36.744543,174.741955,-0.57,22.12,1018.52,0.66,0.72,0.33,-51.33,26.69,-15.07
83839,-36.744543,174.741955,-0.57,22.11,1018.52,0.52,0.23,0.78,-53.77,9.86,-68.55
83954,-36.744534,174.741970,-0.57,22.11,1018.52,0.59,0.04,0.94,-44.99,-31.61,-35.62
84057,-36.744534,174.741970,-0.45,22.11,1018.50,0.59,0.61,0.93,-45.24,-40.20,-43.49
84168,-36.744534,174.741970,-0.46,22.11,1018.50,0.44,0.20,0.86,-48.35,22.72,-23.00
84276,-36.744534,174.741970,-0.39,22.11,1018.49,0.48,0.27,0.87,-48.29,-21.79,0.84
84389,-36.744534,174.741970,-0.41,22.11,1018.50,0.49,0.21,0.86,-43.59,13.76,8.16
84630,-36.744534,174.741970,-0.43,22.11,1018.50,0.86,-0.07,0.75,-67.74,50.10,26.76
84741,-36.744534,174.741970,-0.46,22.08,1018.50,0.84,-0.14,0.70,-83.83,44.06,17.25
84852,-36.744534,174.741970,-0.39,22.08,1018.50,0.68,-0.07,0.53,-60.42,31.38,7.37
84968,-36.744533,174.741979,-0.37,22.08,1018.49,0.59,-0.28,0.64,-53.96,22.24,-30.13
85083,-36.744533,174.741979,-0.36,22.09,1018.49,0.43,-0.37,0.67,-15.42,30.34,-43.79
85204,-36.744533,174.741979,-0.34,22.10,1018.49,0.36,-0.52,0.66,-12.07,2.54,-49.10
85320,-36.744533,174.741979,-0.35,22.13,1018.48,0.33,-0.57,0.85,2.08,25.22,-43.55
85431,-36.744533,174.741979,-0.34,22.15,1018.49,0.37,-0.53,0.78,-21.27,23.45,-41.96
85647,-36.744533,174.741979,-0.38,22.15,1018.49,0.25,-0.40,0.86,-0.18,31.87,-42.33
85758,-36.744533,174.741979,-0.51,22.14,1018.51,0.17,-0.40,1.08,-7.19,33.52,-25.86
85870,-36.744533,174.741979,-0.53,22.14,1018.51,0.19,-0.49,0.96,-1.46,29.86,-40.25
85983,-36.744538,174.741980,-0.53,22.16,1018.51,0.29,-0.44,0.84,13.12,60.77,-10.93
86094,-36.744538,174.741980,-0.44,22.18,1018.50,0.44,-0.46,0.94,11.10,28.21,-20.68
86205,-36.744538,174.741980,-0.39,22.20,1018.50,0.31,-0.42,0.88,-1.82,28.33,-22.39
86326,-36.744538,174.741980,-0.33,22.22,1018.49,0.30,-0.38,0.88,-14.32,9.80,-29.95
86442,-36.744538,174.741980,-0.25,22.23,1018.48,0.33,-0.40,0.99,-28.90,14.74,-28.97
86661,-36.744538,174.741980,-0.24,22.23,1018.48,0.21,-0.37,0.86,-7.80,5.83,-15.19
86772,-36.744538,174.741980,-0.22,22.19,1018.48,0.22,-0.45,0.88,-24.87,29.00,-3.06
86883,-36.744538,174.741980,-0.20,22.19,1018.47,0.15,-0.54,0.83,-19.20,8.70,-14.22
86991,-36.744539,174.741988,-0.17,22.20,1018.47,0.15,-0.58,0.83,-12.98,13.76,-6.47
87106,-36.744539,174.741988,-0.17,22.21,1018.47,0.18,-0.54,0.76,-20.54,7.42,8.10
87216,-36.744539,174.741988,-0.18,22.23,1018.47,0.19,-0.62,0.59,-22.13,-2.28,22.37
87327,-36.744539,174.741988,-0.14,22.24,1018.46,0.10,-0.63,0.60,-9.63,-8.92,36.09
87435,-36.744539,174.741988,0.02,22.25,1018.44,0.04,-0.63,0.72,-2.31,-25.14,38.53
87671,-36.744539,174.741988,0.04,22.25,1018.44,0.32,-0.39,0.82,6.78,-30.75,46.51
87773,-36.744539,174.741988,-0.02,22.20,1018.45,0.16,-0.43,0.87,15.86,-37.40,50.60
87883,-36.744539,174.741988,-0.03,22.19,1018.45,0.17,-0.42,0.86,11.04,-33.31,37.86
87992,-36.744540,174.741995,0.00,22.20,1018.45,0.13,-0.44,0.91,10.43,-30.63,29.26
88103,-36.744540,174.741995,0.04,22.21,1018.44,0.03,-0.47,0.93,5.07,-26.24,16.82
88210,-36.744540,174.741995,0.04,22.22,1018.44,0.07,-0.41,0.93,-8.47,-19.17,8.71
88321,-36.744540,174.741995,0.00,22.22,1018.45,0.15,-0.34,1.02,2.93,-16.55,-3.97
88432,-36.744540,174.741995,0.04,22.23,1018.44,0.12,-0.27,0.88,10.19,-13.50,2.79
88683,-36.744540,174.741995,0.04,22.23,1018.44,0.17,-0.42,0.95,1.41,1.32,-40.07
88794,-36.744540,174.741995,-0.10,22.21,1018.46,0.15,-0.51,0.94,-14.50,11.81,-48.61
88915,-36.744540,174.741995,-0.18,22.23,1018.47,0.28,-0.59,0.74,-5.72,31.75,-43.30
89020,-36.744534,174.742010,-0.18,22.25,1018.47,0.39,-0.56,0.78,7.45,11.50,-31.84
89130,-36.744534,174.742010,-0.14,22.27,1018.46,0.43,-0.55,0.80,9.58,-9.59,-8.61
89246,-36.744534,174.742010,-0.13,22.28,1018.46,0.50,-0.41,0.82,11.65,7.11,4.87
89357,-36.744534,174.742010,-0.08,22.29,1018.46,0.73,-0.27,0.63,21.47,19.37,58.28
89468,-36.744534,174.742010,-0.07,22.29,1018.45,0.70,-0.11,0.89,24.46,-35.33,104.56
89707,-36.744534,174.742010,-0.08,22.29,1018.46,0.34,0.00,1.09,0.56,-66.12,127.79
89809,-36.744534,174.742010,-0.11,22.23,1018.46,0.07,0.03,1.13,23.60,-47.89,145.60
89920,-36.744534,174.742010,-0.16,22.21,1018.47,-0.28,0.03,1.16,-5.66,-2.52,55.78
90022,-36.744533,174.742013,-0.12,22.21,1018.46,-0.16,-0.10,1.02,-3.90,-4.84,-4.95
90138,-36.744533,174.742013,-0.14,22.22,1018.47,0.09,-0.23,1.02,-1.52,7.60,-43.06
90249,-36.744533,174.742013,-0.13,22.23,1018.46,0.19,-0.33,0.98,-5.91,10.53,-45.44
90360,-36.744533,174.742013,-0.10,22.24,1018.46,0.26,-0.32,0.95,-11.15,21.02,-46.35
90470,-36.744533,174.742013,-0.14,22.25,1018.47,0.25,-0.33,0.89,-11.27,17.48,-39.83
90712,-36.744533,174.742013,-0.12,22.26,1018.46,0.22,-0.35,0.94,-7.43,21.56,-43.73
90819,-36.744533,174.742013,-0.25,22.24,1018.48,0.24,-0.35,0.92,-9.02,16.69,-46.60
90926,-36.744533,174.742013,-0.25,22.26,1018.47,0.24,-0.36,0.91,-10.11,20.59,-46.35
91029,-36.744540,174.742011,-0.20,22.27,1018.47,0.27,-0.33,0.90,-13.41,18.33,-51.41
91138,-36.744540,174.742011,-0.21,22.29,1018.47,0.25,-0.33,0.93,-14.57,16.50,-51.47
91254,-36.744540,174.742011,-0.20,22.30,1018.47,0.24,-0.33,0.94,-15.18,21.75,-59.34
91361,-36.744540,174.742011,-0.21,22.32,1018.48,0.27,-0.35,0.89,-16.09,12.91,-61.78
91472,-36.744540,174.742011,-0.25,22.34,1018.48,0.30,-0.36,0.92,-11.94,25.16,-67.08
91734,-36.744540,174.742011,-0.26,22.35,1018.48,0.40,-0.37,0.84,-24.14,18.03,-61.72
91844,-36.744540,174.742011,-0.39,22.33,1018.50,0.40,-0.39,0.85,-17.92,29.13,-52.33
91946,-36.744552,174.742004,-0.39,22.34,1018.50,0.42,-0.44,0.88,-15.24,16.08,-48.24
92057,-36.744552,174.742004,-0.37,22.35,1018.49,0.47,-0.57,0.88,-13.83,16.20,-18.24
92164,-36.744552,174.742004,-0.32,22.37,1018.49,0.52,-0.63,0.68,-12.00,-4.90,-15.19
92275,-36.744552,174.742004,-0.32,22.39,1018.48,0.51,-0.55,0.71,8.67,-3.98,21.03
92386,-36.744552,174.742004,-0.26,22.40,1018.48,0.47,-0.49,0.76,8.18,-9.29,45.11
92497,-36.744552,174.742004,-0.26,22.40,1018.48,0.46,-0.41,0.79,17.32,-31.42,61.94
92736,-36.744552,174.742004,-0.20,22.40,1018.47,0.43,-0.29,0.91,18.60,-39.47,78.89
92847,-36.744552,174.742004,-0.25,22.35,1018.48,0.49,-0.28,0.91,21.23,-46.18,74.62
92958,-36.744555,174.742003,-0.19,22.34,1018.47,0.47,-0.23,1.00,27.57,-38.50,80.60
93061,-36.744555,174.742003,-0.11,22.33,1018.46,0.37,-0.20,1.00,22.69,-33.25,84.93
93177,-36.744555,174.742003,-0.09,22.33,1018.46,0.32,-0.23,0.94,17.39,-31.55,73.22
93299,-36.744555,174.742003,-0.01,22.33,1018.45,0.27,-0.26,0.92,20.80,-27.28,61.39
93414,-36.744555,174.742003,-0.02,22.33,1018.45,0.22,-0.33,0.93,15.43,-21.55,60.60
93525,-36.744555,174.742003,-0.03,22.32,1018.45,0.18,-0.35,0.92,15.86,-31.85,59.14
93744,-36.744555,174.742003,-0.01,22.32,1018.45,0.24,-0.37,0.89,18.91,-24.90,67.37
93855,-36.744555,174.742003,-0.09,22.27,1018.46,0.26,-0.34,0.87,18.00,-24.84,70.11
93972,-36.744552,174.741994,-0.07,22.25,1018.46,0.25,-0.32,0.83,17.08,-27.52,76.45
94077,-36.744552,174.741994,-0.07,22.24,1018.46,0.34,-0.26,0.89,23.79,-39.29,77.49
94188,-36.744552,174.741994,-0.05,22.24,1018.45,0.35,-0.28,0.95,10.68,-55.08,98.04
94299,-36.744552,174.741994,-0.01,22.24,1018.45,0.41,-0.20,0.99,20.19,-39.72,89.50
94406,-36.744552,174.741994,0.02,22.23,1018.45,0.36,-0.20,0.95,27.51,-34.84,92.43
94517,-36.744552,174.741994,0.04,22.23,1018.44,0.36,-0.23,1.01,20.31,-43.44,74.93
94746,-36.744552,174.741994,-0.02,22.23,1018.45,0.34,-0.28,0.95,13.42,-29.78,77.37
94857,-36.744552,174.741994,-0.14,22.19,1018.47,0.30,-0.31,0.86,14.15,-26.97,74.14
94960,-36.744549,174.741978,-0.15,22.18,1018.47,0.26,-0.27,0.83,13.91,-42.40,62.49
95069,-36.744549,174.741978,-0.17,22.18,1018.47,0.24,-0.25,0.94,25.31,-34.17,59.01
95171,-36.744549,174.741978,-0.14,22.18,1018.46,0.21,-0.30,0.97,27.93,-26.55,61.64
95286,-36.744549,174.741978,-0.13,22.19,1018.46,0.21,-0.31,0.93,22.32,-22.40,64.26
95397,-36.744549,174.741978,-0.12,22.19,1018.46,0.16,-0.31,0.92,19.46,-20.08,60.23
95508,-36.744549,174.741978,-0.12,22.20,1018.46,0.16,-0.32,0.94,8.54,-27.76,53.59
95769,-36.744549,174.741978,-0.15,22.20,1018.47,0.14,-0.28,0.99,4.40,-27.70,30.29
95880,-36.744549,174.741978,-0.30,22.19,1018.48,0.18,-0.26,1.06,5.01,-17.40,8.59
95993,-36.744556,174.741979,-0.31,22.21,1018.49,0.29,-0.25,1.29,-8.77,1.99,-4.22
96095,-36.744556,174.741979,-0.21,22.24,1018.47,0.45,-0.52,1.40,-62.37,44.80,19.56
96206,-36.744556,174.741979,-0.14,22.26,1018.46,0.14,-0.50,0.82,-44.99,79.67,33.59
96317,-36.744556,174.741979,-0.13,22.26,1018.46,0.00,-0.56,0.76,-23.41,68.52,-8.85
96428,-36.744556,174.741979,-0.03,22.26,1018.45,0.03,-0.45,0.43,9.09,80.77,-7.27
96538,-36.744556,174.741979,-0.04,22.26,1018.45,-0.12,-0.33,0.46,14.76,30.95,-36.84
96778,-36.744556,174.741979,0.03,22.26,1018.44,0.07,-0.35,0.64,35.98,-53.25,-82.21
96879,-36.744556,174.741979,-0.09,22.23,1018.46,0.09,-0.36,0.99,54.46,-41.24,-97.63
96988,-36.744554,174.741976,-0.21,22.24,1018.47,0.16,-0.17,1.32,62.57,-20.20,-112.08
97101,-36.744554,174.741976,-0.20,22.26,1018.48,0.29,-0.17,1.27,-5.72,-34.96,-119.10
97213,-36.744554,174.741976,-0.29,22.28,1018.48,0.52,-0.10,1.17,-12.49,2.30,-128.73
97324,-36.744554,174.741976,-0.37,22.30,1018.49,0.53,-0.09,1.23,-37.43,17.84,-108.97
97435,-36.744554,174.741976,-0.33,22.31,1018.49,0.83,-0.19,1.14,-61.76,44.67,-73.12
97542,-36.744554,174.741976,-0.37,22.32,1018.49,0.58,-0.38,0.97,-67.74,50.59,-13.18
97782,-36.744554,174.741976,-0.30,22.33,1018.48,0.31,-0.32,0.47,-47.98,23.27,42.37
97892,-36.744554,174.741976,-0.27,22.28,1018.48,0.05,-0.29,0.48,-10.66,-9.59,48.53
97995,-36.744554,174.741966,-0.12,22.26,1018.46,0.07,-0.26,0.54,32.26,-47.95,23.77
98106,-36.744554,174.741966,-0.06,22.26,1018.46,-0.03,-0.28,0.93,48.42,-65.57,29.99
98217,-36.744554,174.741966,-0.05,22.26,1018.45,0.14,-0.32,0.95,75.62,-61.97,30.36
98319,-36.744554,174.741966,-0.04,22.26,1018.46,0.32,-0.15,0.98,75.56,-44.29,46.82
98430,-36.744554,174.741966,-0.09,22.27,1018.46,0.17,-0.13,1.24,42.57,-36.97,58.95
98541,-36.744554,174.741966,-0.18,22.27,1018.48,0.26,-0.11,1.35,-4.93,-38.01,53.89
98802,-36.744554,174.741966,-0.23,22.27,1018.48,0.29,0.10,0.80,-46.82,15.28,-19.58
98913,-36.744554,174.741966,-0.30,22.24,1018.48,0.25,-0.00,0.74,-29.63,15.47,-67.57
99032,-36.744557,174.741955,-0.32,22.25,1018.49,0.44,-0.05,0.90,-14.50,22.60,-113.91
99144,-36.744557,174.741955,-0.36,22.27,1018.49,0.52,-0.12,1.04,-17.68,43.45,-125.56
99255,-36.744557,174.741955,-0.33,22.29,1018.49,0.59,-0.21,1.14,-24.81,57.72,-126.35
99366,-36.744557,174.741955,-0.31,22.31,1018.49,0.61,-0.25,1.17,-41.27,51.99,-112.51
99476,-36.744557,174.741955,-0.28,22.32,1018.48,0.74,-0.43,1.00,-65.11,45.95,-68.36
99587,-36.744557,174.741955,-0.31,22.34,1018.48,0.36,-0.40,0.71,-45.85,43.33,12.67
99804,-36.744557,174.741955,-0.28,22.34,1018.48,0.12,-0.46,0.62,-15.24,-3.62,42.18
99905,-36.744557,174.741955,-0.25,22.30,1018.48,0.05,-0.39,0.58,7.81,-24.05,46.09
100008,-36.744557,174.741954,-0.16,22.30,1018.46,-0.09,-0.30,0.72,18.91,-24.90,44.38
100119,-36.744557,174.741954,-0.10,22.31,1018.46,-0.18,-0.23,0.75,31.71,-39.11,24.38
100231,-36.744557,174.741954,-0.04,22.32,1018.46,-0.20,-0.15,0.93,28.06,-52.03,-16.60
100339,-36.744557,174.741954,-0.08,22.34,1018.46,0.05,-0.02,0.98,11.90,-48.19,-35.07
100449,-36.744557,174.741954,-0.09,22.35,1018.46,0.27,0.06,1.19,24.52,-11.06,-62.69
100557,-36.744557,174.741954,-0.22,22.37,1018.48,0.65,0.09,0.98,4.82,-8.80,-71.23
100818,-36.744557,174.741954,-0.28,22.38,1018.48,0.74,0.07,1.15,3.97,-2.95,-72.14
100929,-36.744557,174.741954,-0.43,22.34,1018.50,0.69,-0.02,1.26,-5.30,5.83,-33.18
101042,-36.744553,174.741966,-0.48,22.35,1018.51,0.54,-0.13,1.15,-24.44,24.43,2.25
101152,-36.744553,174.741966,-0.55,22.36,1018.51,0.58,-0.24,1.13,-18.65,20.65,16.27
101273,-36.744553,174.741966,-0.52,22.37,1018.51,0.48,-0.24,1.11,-54.69,41.93,34.81
101389,-36.744553,174.741966,-0.45,22.37,1018.50,0.48,-0.26,1.07,-82.13,31.50,79.26
101497,-36.744553,174.741966,-0.32,22.36,1018.49,0.29,-0.31,0.78,-64.50,51.93,59.14
101608,-36.744553,174.741966,-0.27,22.35,1018.48,0.05,-0.50,0.58,-26.82,45.71,32.79
101824,-36.744553,174.741966,-0.23,22.34,1018.48,-0.06,-0.66,0.48,-60.36,12.84,39.93
101935,-36.744553,174.741966,-0.10,22.27,1018.46,-0.24,-0.38,0.29,-6.70,-2.64,29.93
102048,-36.744549,174.741970,0.04,22.25,1018.44,-0.40,-0.38,0.53,33.48,-22.58,34.20
102169,-36.744549,174.741970,0.09,22.25,1018.43,-0.46,-0.42,0.69,30.07,-28.19,8.22
102277,-36.744549,174.741970,0.13,22.27,1018.44,-0.31,-0.47,0.74,12.69,-36.06,3.71
102393,-36.744549,174.741970,0.06,22.29,1018.44,-0.25,-0.48,0.74,10.43,-36.61,-9.71
102503,-36.744549,174.741970,0.03,22.32,1018.45,-0.17,-0.52,0.83,5.31,-31.24,-7.88
102614,-36.744549,174.741970,-0.05,22.34,1018.46,-0.03,-0.57,0.71,10.19,-38.98,-30.68
102831,-36.744549,174.741970,-0.12,22.34,1018.46,0.38,-0.35,0.70,51.65,-57.76,-44.64
102943,-36.744550,174.741954,-0.25,22.33,1018.48,0.37,-0.38,1.02,106.96,-45.39,-10.19
103051,-36.744550,174.741954,-0.36,22.35,1018.49,0.68,-0.13,1.00,85.31,-38.56,16.76
103167,-36.744550,174.741954,-0.39,22.38,1018.50,0.86,-0.29,1.17,71.35,-42.16,65.78
103277,-36.744550,174.741954,-0.43,22.40,1018.51,0.82,-0.14,1.30,53.48,-39.96,115.90
103378,-36.744550,174.741954,-0.48,22.40,1018.51,0.73,-0.10,0.91,51.17,-22.09,92.25
103486,-36.744550,174.741954,-0.54,22.41,1018.51,0.80,-0.01,0.83,105.92,16.87,45.11
103601,-36.744550,174.741954,-0.58,22.41,1018.51,0.75,-0.10,1.13,30.74,8.58,112.37
103843,-36.744550,174.741954,-0.52,22.41,1018.51,0.35,-0.12,0.90,-93.10,39.86,33.53
103957,-36.744552,174.741942,-0.44,22.36,1018.50,0.30,-0.13,0.55,-48.53,86.87,-14.16
104061,-36.744552,174.741942,-0.39,22.35,1018.49,0.37,-0.14,0.57,-22.49,57.05,-80.68
104172,-36.744552,174.741942,-0.38,22.36,1018.49,0.40,-0.29,0.56,-1.33,42.48,-108.12
104283,-36.744552,174.741942,-0.42,22.38,1018.50,0.45,-0.36,0.71,27.39,50.16,-114.52
104393,-36.744552,174.741942,-0.48,22.40,1018.51,0.72,-0.59,1.16,4.15,-36.67,-113.55
104501,-36.744552,174.741942,-0.52,22.42,1018.51,0.97,-0.67,1.18,-29.14,49.98,-58.91
104612,-36.744552,174.741942,-0.51,22.44,1018.51,0.76,-0.56,1.02,-53.83,72.30,15.84
104851,-36.744552,174.741942,-0.49,22.44,1018.51,0.26,-0.77,0.44,-48.41,48.64,64.75
104967,-36.744550,174.741941,-0.31,22.38,1018.49,0.42,-0.45,0.74,-57.07,41.63,61.45
105069,-36.744550,174.741941,-0.19,22.37,1018.46,0.35,-0.44,0.38,-45.05,11.87,76.70
105185,-36.744550,174.741941,-0.01,22.36,1018.44,-0.01,-0.40,0.38,-16.27,-31.24,84.38
105292,-36.744550,174.741941,0.15,22.36,1018.43,-0.04,-0.37,0.46,7.75,-61.48,55.17
105403,-36.744550,174.741941,0.23,22.37,1018.42,-0.17,-0.48,0.75,28.24,-64.78,30.54
105514,-36.744550,174.741941,0.23,22.38,1018.42,-0.15,-0.79,1.15,11.35,-66.48,25.72
105625,-36.744550,174.741941,0.12,22.40,1018.44,0.12,-0.66,1.04,4.40,-14.35,3.83
105854,-36.744550,174.741941,0.03,22.41,1018.44,-0.16,-0.53,0.76,20.80,-26.36,25.96
105970,-36.744552,174.741933,-0.06,22.40,1018.46,-0.04,-0.56,0.86,18.85,-42.70,43.59
106074,-36.744552,174.741933,-0.10,22.42,1018.46,-0.02,-0.61,0.81,6.35,-38.74,55.48
106185,-36.744552,174.741933,-0.16,22.44,1018.47,0.06,-0.61,0.82,26.65,-37.03,61.51
106296,-36.744552,174.741933,-0.20,22.47,1018.47,0.15,-0.45,0.91,18.85,-51.79,73.10
106407,-36.744552,174.741933,-0.17,22.48,1018.46,0.25,-0.28,0.80,30.86,-55.63,51.82
106519,-36.744552,174.741933,-0.14,22.49,1018.47,0.30,-0.25,0.97,51.53,-45.87,39.99
106627,-36.744552,174.741933,-0.17,22.50,1018.47,0.35,-0.27,0.98,44.34,-44.90,34.50
106868,-36.744552,174.741933,-0.23,22.51,1018.48,0.49,-0.34,1.01,29.70,-28.50,27.25
106993,-36.744556,174.741923,-0.33,22.46,1018.49,0.53,-0.30,0.94,46.41,-22.83,55.48
107104,-36.744556,174.741923,-0.37,22.46,1018.50,0.49,-0.25,1.19,-16.88,-18.19,55.48
107209,-36.744556,174.741923,-0.40,22.46,1018.49,0.47,-0.24,0.80,2.14,0.41,66.70
107325,-36.744556,174.741923,-0.38,22.47,1018.49,0.59,-0.18,0.49,11.47,-18.86,65.60
107436,-36.744556,174.741923,-0.32,22.48,1018.49,0.33,-0.11,0.90,47.93,-30.51,103.28
107543,-36.744556,174.741923,-0.32,22.49,1018.48,0.20,-0.17,1.44,-10.91,-21.73,61.51
107654,-36.744556,174.741923,-0.28,22.50,1018.48,0.04,-0.10,1.30,-39.75,21.93,30.54
107870,-36.744556,174.741923,-0.23,22.50,1018.48,0.18,-0.31,0.86,-28.29,40.10,-12.82
107996,-36.744564,174.741921,-0.23,22.48,1018.48,0.08,-0.32,0.69,-9.08,48.64,-21.29
108107,-36.744564,174.741921,-0.19,22.49,1018.47,0.13,-0.31,0.65,4.03,28.03,-59.71
108218,-36.744564,174.741921,-0.18,22.50,1018.47,0.25,-0.34,0.78,-11.94,7.72,-78.91
108325,-36.744564,174.741921,-0.19,22.51,1018.47,0.30,-0.32,0.87,-15.85,16.32,-76.96
108436,-36.744564,174.741921,-0.23,22.52,1018.48,0.38,-0.29,0.97,-12.80,25.47,-95.86
108547,-36.744564,174.741921,-0.22,22.53,1018.47,0.48,-0.30,1.07,-19.08,29.55,-97.39
108658,-36.744564,174.741921,-0.19,22.53,1018.47,0.63,-0.29,0.97,-17.43,51.20,-98.00
108875,-36.744564,174.741921,-0.21,22.53,1018.47,0.52,-0.27,0.89,-19.87,42.17,-86.54
108982,-36.744553,174.741919,-0.40,22.49,1018.50,0.64,-0.30,0.78,-18.71,33.27,-79.58
109085,-36.744553,174.741919,-0.41,22.50,1018.50,0.53,-0.30,0.77,-15.48,33.52,-68.36
109201,-36.744553,174.741919,-0.39,22.51,1018.50,0.52,-0.26,0.90,-11.94,29.49,-66.96
109311,-36.744553,174.741919,-0.45,22.52,1018.50,0.52,-0.31,0.81,-19.08,15.16,-73.97
109422,-36.744553,174.741919,-0.44,22.53,1018.50,0.44,-0.28,0.90,-8.47,22.54,-72.57
109533,-36.744553,174.741919,-0.42,22.54,1018.50,0.53,-0.33,1.02,-10.97,25.53,-76.11
109646,-36.744553,174.741919,-0.42,22.54,1018.50,0.52,-0.50,1.01,-23.59,26.93,-68.30
109890,-36.744553,174.741919,-0.38,22.54,1018.49,0.51,-0.52,0.96,-44.20,0.16,25.84
109993,-36.744552,174.741923,-0.44,22.50,1018.50,0.45,-0.51,0.78,-53.77,-0.94,58.34
110114,-36.744552,174.741923,-0.33,22.50,1018.49,0.35,-0.49,0.70,-44.32,-11.91,76.51
110230,-36.744552,174.741923,-0.21,22.50,1018.47,0.25,-0.46,0.63,-25.97,-24.05,85.11
110341,-36.744552,174.741923,-0.10,22.50,1018.46,0.20,-0.44,0.61,-11.52,-43.74,67.86
110452,-36.744552,174.741923,-0.02,22.50,1018.45,0.19,-0.46,0.70,9.82,-48.44,55.17
110559,-36.744552,174.741923,0.06,22.49,1018.44,0.23,-0.49,0.83,17.87,-52.83,42.73
110670,-36.744552,174.741923,0.10,22.49,1018.44,0.26,-0.47,0.94,20.80,-45.69,47.00
110899,-36.744552,174.741923,0.09,22.49,1018.44,0.14,-0.43,0.79,23.36,-33.44,33.71
111018,-36.744562,174.741920,-0.09,22.45,1018.46,0.15,-0.42,0.82,33.48,-28.07,31.09
111134,-36.744562,174.741920,-0.13,22.46,1018.46,0.15,-0.42,0.93,25.98,-25.69,28.16
111243,-36.744562,174.741920,-0.11,22.48,1018.46,0.19,-0.39,0.90,16.90,-34.47,35.78
111354,-36.744562,174.741920,-0.13,22.49,1018.46,0.19,-0.36,0.91,20.98,-35.08,42.06
111462,-36.744562,174.741920,-0.16,22.51,1018.47,0.22,-0.34,0.84,22.32,-49.84,39.68
111573,-36.744562,174.741920,-0.16,22.53,1018.47,0.32,-0.42,0.88,32.02,-52.28,39.01
111683,-36.744562,174.741920,-0.21,22.54,1018.47,0.41,-0.35,0.96,38.73,-28.86,60.11
111923,-36.744562,174.741920,-0.26,22.54,1018.48,0.36,-0.25,0.86,29.28,-41.06,66.15
112036,-36.744577,174.741926,-0.40,22.52,1018.50,0.41,-0.30,1.04,31.17,-34.47,59.01
112147,-36.744577,174.741926,-0.43,22.53,1018.50,0.50,-0.35,1.17,15.37,-20.94,52.86
112249,-36.744577,174.741926,-0.43,22.54,1018.50,0.55,-0.31,1.01,3.36,-7.03,79.20
112360,-36.744577,174.741926,-0.40,22.56,1018.50,0.55,-0.31,0.89,-17.61,-1.12,100.05
112471,-36.744577,174.741926,-0.37,22.57,1018.49,0.42,-0.40,0.93,-19.87,-5.57,96.39
112582,-36.744577,174.741926,-0.23,22.58,1018.47,0.32,-0.47,0.82,-32.31,-17.58,82.98
112693,-36.744577,174.741926,-0.16,22.58,1018.46,0.19,-0.48,0.79,-18.35,-9.23,72.49
112941,-36.744585,174.741929,-0.13,22.57,1018.46,0.11,-0.63,0.70,-27.31,-14.59,47.92
113052,-36.744585,174.741929,-0.10,22.50,1018.46,0.00,-0.75,0.71,-16.94,-28.74,49.87
113163,-36.744585,174.741929,-0.09,22.47,1018.45,0.01,-0.69,0.63,-17.00,-27.89,45.17
113272,-36.744585,174.741929,0.02,22.46,1018.45,-0.05,-0.72,0.59,-17.37,-43.19,49.20
113383,-36.744585,174.741929,0.01,22.45,1018.45,-0.11,-0.74,0.54,0.80,-40.33,41.15
113493,-36.744585,174.741929,0.05,22.44,1018.44,-0.06,-0.75,0.62,-12.80,-61.73,41.94
113604,-36.744585,174.741929,0.06,22.43,1018.44,-0.02,-0.71,0.65,4.21,-61.12,56.27
113712,-36.744585,174.741929,0.09,22.43,1018.43,-0.08,-0.69,0.71,16.90,-58.80,59.44
113942,-36.744586,174.741930,0.12,22.44,1018.43,-0.11,-0.58,0.74,12.45,-61.97,51.21
114049,-36.744586,174.741930,0.02,22.40,1018.45,-0.15,-0.57,0.81,14.15,-57.09,44.38
114159,-36.744586,174.741930,-0.00,22.40,1018.45,-0.11,-0.58,0.82,7.75,-54.41,33.40
114270,-36.744586,174.741930,-0.04,22.41,1018.45,-0.02,-0.56,0.83,9.40,-53.01,29.20
114381,-36.744586,174.741930,-0.10,22.43,1018.46,0.06,-0.52,0.86,10.80,-54.17,17.43
114489,-36.744586,174.741930,-0.10,22.44,1018.46,0.21,-0.53,0.79,35.19,-32.34,23.95
114599,-36.744586,174.741930,-0.08,22.46,1018.46,0.27,-0.50,0.88,32.45,-36.06,22.12
114710,-36.744586,174.741930,-0.13,22.47,1018.47,0.33,-0.43,0.87,9.82,-60.69,26.33
114978,-36.744581,174.741924,-0.17,22.48,1018.47,0.41,-0.46,0.74,59.82,-42.76,35.90
115079,-36.744581,174.741924,-0.20,22.43,1018.47,0.62,-0.40,0.95,54.34,-46.55,25.36
115190,-36.744581,174.741924,-0.27,22.43,1018.48,0.42,-0.30,1.01,32.45,-44.72,42.06
115303,-36.744581,174.741924,-0.39,22.43,1018.49,0.28,-0.26,1.05,20.07,-16.42,18.65
115414,-36.744581,174.741924,-0.46,22.43,1018.50,0.35,-0.19,1.04,3.18,-8.98,-5.68
115525,-36.744581,174.741924,-0.42,22.43,1018.50,0.44,-0.20,0.93,-9.44,-3.86,5.90
115636,-36.744581,174.741924,-0.45,22.41,1018.50,0.43,-0.14,0.86,-14.02,12.91,-10.93
115746,-36.744581,174.741924,-0.43,22.40,1018.50,0.48,-0.16,0.81,-11.33,10.59,-35.62
115994,-36.744577,174.741928,-0.41,22.39,1018.50,0.46,-0.16,0.94,-23.41,16.38,-32.63
116103,-36.744577,174.741928,-0.45,22.32,1018.51,0.46,-0.19,0.90,-18.96,11.32,-23.18
116211,-36.744577,174.741928,-0.48,22.30,1018.50,0.42,-0.24,0.88,-10.60,8.45,-16.41
116322,-36.744577,174.741928,-0.43,22.29,1018.50,0.42,-0.20,0.99,-11.52,14.67,-22.82
116433,-36.744577,174.741928,-0.43,22.29,1018.50,0.47,-0.25,0.82,-18.29,10.53,-33.12
116544,-36.744577,174.741928,-0.42,22.28,1018.50,0.49,-0.27,0.83,-12.49,27.91,-38.36
116655,-36.744577,174.741928,-0.44,22.27,1018.50,0.51,-0.32,0.79,-24.50,16.26,-41.78
116762,-36.744577,174.741928,-0.35,22.27,1018.49,0.52,-0.32,0.79,-25.85,12.30,-40.68
117010,-36.744580,174.741929,-0.37,22.27,1018.49,0.32,-0.31,0.91,-26.52,13.27,-26.35
117121,-36.744580,174.741929,-0.46,22.22,1018.50,0.34,-0.30,0.88,-20.91,19.74,-31.90
117246,-36.744580,174.741929,-0.47,22.23,1018.51,0.52,-0.26,0.89,-20.42,40.22,-33.49
117357,-36.744580,174.741929,-0.46,22.25,1018.50,0.35,-0.21,0.70,-33.16,6.32,-49.89
117468,-36.744580,174.741929,-0.46,22.26,1018.50,0.39,-0.27,0.98,-6.58,13.21,-67.57
117575,-36.744580,174.741929,-0.38,22.28,1018.49,0.39,-0.31,0.93,-16.46,10.95,-41.23
117686,-36.744580,174.741929,-0.34,22.30,1018.49,0.37,-0.29,0.82,-14.57,15.53,-21.66
117797,-36.744580,174.741929,-0.40,22.31,1018.50,0.34,-0.23,0.87,-12.00,2.54,-27.39
118021,-36.744583,174.741935,-0.43,22.31,1018.50,0.50,-0.37,0.94,-13.65,-12.03,-24.64
118132,-36.744583,174.741935,-0.55,22.29,1018.51,0.44,-0.37,0.96,-3.65,11.08,-1.90
118254,-36.744583,174.741935,-0.56,22.31,1018.52,0.38,-0.37,0.76,-6.82,9.92,-9.52
118361,-36.744583,174.741935,-0.50,22.33,1018.51,0.44,-0.38,0.79,4.15,11.81,-13.30
118477,-36.744583,174.741935,-0.49,22.35,1018.51,0.41,-0.45,0.80,-7.55,5.71,-10.99
118588,-36.744583,174.741935,-0.49,22.37,1018.51,0.38,-0.46,0.76,-5.66,-16.85,0.11
118698,-36.744583,174.741935,-0.51,22.38,1018.51,0.36,-0.26,0.98,14.82,-1.55,19.01
118809,-36.744583,174.741935,-0.48,22.39,1018.51,0.41,-0.25,0.80,-23.04,-30.94,25.54
119034,-36.744590,174.741936,-0.47,22.39,1018.51,0.53,-0.29,0.99,1.71,-16.24,-6.78
119136,-36.744590,174.741936,-0.56,22.35,1018.52,0.50,-0.30,1.00,-17.86,1.08,-0.38
119258,-36.744590,174.741936,-0.58,22.35,1018.52,0.31,-0.27,0.92,-25.54,22.60,5.84
119360,-36.744590,174.741936,-0.54,22.36,1018.51,0.17,-0.23,0.89,-8.53,36.50,-7.75
119470,-36.744590,174.741936,-0.53,22.37,1018.52,0.10,-0.19,0.95,15.74,60.53,-45.44
119581,-36.744590,174.741936,-0.58,22.38,1018.51,0.22,-0.27,1.07,-13.83,15.22,-41.96
119692,-36.744590,174.741936,-0.51,22.39,1018.51,0.28,-0.19,1.01,-11.46,16.87,-46.96
119803,-36.744590,174.741936,-0.50,22.40,1018.51,0.48,-0.09,0.81,-8.35,7.24,-64.40
120052,-36.744592,174.741933,-0.54,22.41,1018.51,0.63,-0.17,0.94,-3.90,18.58,-73.49
120163,-36.744592,174.741933,-0.65,22.38,1018.53,0.70,-0.22,0.79,-33.53,10.41,-64.77
120285,-36.744592,174.741933,-0.64,22.39,1018.52,0.67,-0.23,0.81,-32.98,9.86,-36.05
120400,-36.744592,174.741933,-0.59,22.40,1018.52,0.40,-0.38,0.81,-2.07,16.08,-8.73
120511,-36.744592,174.741933,-0.54,22.41,1018.51,0.37,-0.30,1.11,11.35,13.33,17.79
120622,-36.744592,174.741933,-0.50,22.42,1018.51,0.33,-0.25,0.80,0.25,8.39,30.36
120729,-36.744592,174.741933,-0.45,22.42,1018.50,0.35,-0.14,0.61,-12.92,-43.31,30.17
120840,-36.744592,174.741933,-0.36,22.42,1018.48,0.40,-0.31,0.66,40.31,-30.57,-4.28
121064,-36.744600,174.741928,-0.28,22.42,1018.48,0.59,0.03,0.89,26.84,-60.81,45.29
121175,-36.744600,174.741928,-0.43,22.38,1018.50,0.51,-0.07,1.01,33.00,-39.78,27.43
121296,-36.744600,174.741928,-0.55,22.38,1018.52,0.40,-0.11,0.79,15.37,-15.81,38.04
121412,-36.744600,174.741928,-0.57,22.40,1018.52,0.68,-0.18,0.93,28.91,-20.26,12.49
121524,-36.744600,174.741928,-0.61,22.41,1018.52,0.84,-0.12,0.89,22.26,15.53,49.56
121635,-36.744600,174.741928,-0.71,22.43,1018.53,0.72,0.03,0.95,-16.03,7.66,38.34
121746,-36.744600,174.741928,-0.71,22.45,1018.53,0.55,-0.02,0.61,-29.08,20.10,19.14
121857,-36.744600,174.741928,-0.68,22.47,1018.53,0.62,-0.10,0.65,-20.66,8.52,-17.21
122081,-36.744596,174.741937,-0.67,22.47,1018.53,0.63,-0.11,0.83,-36.94,13.03,-79.40
122192,-36.744596,174.741937,-0.72,22.44,1018.53,0.65,-0.20,0.73,-53.16,-12.34,-74.77
122294,-36.744596,174.741937,-0.72,22.44,1018.54,0.54,-0.21,0.79,-17.25,-3.56,-47.82
122407,-36.744596,174.741937,-0.77,22.46,1018.54,0.53,-0.24,0.79,-19.14,-16.12,-29.71
122514,-36.744596,174.741937,-0.78,22.48,1018.54,0.53,-0.24,0.77,-2.49,-4.23,2.86
122625,-36.744596,174.741937,-0.76,22.50,1018.54,0.64,-0.18,0.87,-0.24,-2.70,13.10
122736,-36.744596,174.741937,-0.79,22.51,1018.54,0.80,-0.11,0.88,-7.43,-2.64,4.38
122847,-36.744596,174.741937,-0.75,22.52,1018.54,0.55,-0.05,0.59,16.90,26.75,14.81
123096,-36.744595,174.741941,-0.71,22.53,1018.53,0.59,-0.05,0.78,7.87,2.97,-29.04
123207,-36.744595,174.741941,-0.81,22.50,1018.55,0.75,-0.03,0.81,-12.80,2.30,-38.00
123317,-36.744595,174.741941,-0.81,22.51,1018.55,0.65,0.01,0.83,-31.82,6.69,-47.45
123438,-36.744595,174.741941,-0.75,22.52,1018.54,0.61,-0.01,0.80,-37.49,8.94,-45.62
123554,-36.744595,174.741941,-0.68,22.53,1018.53,0.60,0.02,0.80,-42.31,6.38,-45.62
123665,-36.744595,174.741941,-0.65,22.54,1018.53,0.54,0.00,0.77,-39.69,3.52,-44.46
123772,-36.744595,174.741941,-0.66,22.54,1018.52,0.56,-0.06,0.84,-37.86,2.17,-47.94
123883,-36.744595,174.741941,-0.68,22.54,1018.53,0.54,-0.08,0.83,-33.77,2.48,-38.49
124107,-36.744596,174.741940,-0.69,22.54,1018.53,0.59,-0.07,0.80,-28.41,-5.20,-36.60
124218,-36.744596,174.741940,-0.78,22.51,1018.54,0.63,-0.01,0.83,-26.76,6.93,-28.43
124329,-36.744596,174.741940,-0.73,22.52,1018.54,0.64,0.01,0.82,-35.72,12.17,-34.77
124440,-36.744596,174.741940,-0.67,22.54,1018.53,0.63,0.06,0.73,-57.49,2.60,-66.90
124542,-36.744596,174.741940,-0.69,22.56,1018.53,0.69,-0.19,0.71,-48.53,-5.51,-83.85
124653,-36.744596,174.741940,-0.72,22.57,1018.53,0.80,-0.20,0.75,-45.48,11.32,-50.19
124764,-36.744596,174.741940,-0.70,22.59,1018.53,0.56,-0.05,0.73,-50.05,22.84,-50.80
124874,-36.744596,174.741940,-0.68,22.59,1018.53,0.69,-0.13,0.78,-51.76,24.19,-105.86
125121,-36.744596,174.741939,-0.73,22.60,1018.54,0.81,-0.01,0.76,-208.04,-59.84,-163.85
125232,-36.744596,174.741939,-0.72,22.55,1018.54,0.67,-0.30,0.42,-240.11,-62.03,-12.02
125344,-36.744596,174.741939,-0.60,22.54,1018.52,0.94,-0.37,0.17,-125.60,9.67,50.96
125466,-36.744596,174.741939,-0.48,22.53,1018.51,0.53,-0.65,-0.23,-33.65,20.65,40.42
125578,-36.744596,174.741939,-0.49,22.53,1018.51,0.40,-0.56,0.20,21.90,14.25,-4.71
125685,-36.744596,174.741939,-0.53,22.54,1018.51,0.44,-0.68,0.40,10.13,16.87,-63.85
125801,-36.744596,174.741939,-0.56,22.56,1018.51,0.67,-0.73,0.51,-34.08,14.67,-88.36
125912,-36.744596,174.741939,-0.53,22.58,1018.51,0.76,-0.64,0.47,-28.71,28.52,-62.94
126139,-36.744602,174.741938,-0.55,22.59,1018.52,0.79,-0.46,0.45,-30.30,33.58,-59.40
126250,-36.744602,174.741938,-0.69,22.57,1018.53,0.72,-0.37,0.51,-33.04,16.08,-38.85
126360,-36.744602,174.741938,-0.64,22.58,1018.52,0.81,-0.42,0.54,-32.86,16.44,-28.73
126471,-36.744602,174.741938,-0.64,22.60,1018.52,0.79,-0.31,0.57,-20.18,8.03,-13.61
126582,-36.744602,174.741938,-0.63,22.62,1018.52,0.77,-0.26,0.54,-11.82,9.80,-10.44
126693,-36.744602,174.741938,-0.61,22.64,1018.52,0.78,-0.26,0.59,-8.96,12.05,-3.97
126795,-36.744602,174.741938,-0.61,22.65,1018.52,0.78,-0.25,0.54,-13.41,6.81,-15.56
126906,-36.744602,174.741938,-0.61,22.66,1018.52,0.77,-0.26,0.54,-7.25,1.69,-11.96
127153,-36.744604,174.741940,-0.61,22.67,1018.52,0.80,-0.20,0.61,-2.74,7.54,-12.02
127264,-36.744604,174.741940,-0.76,22.65,1018.54,0.79,-0.22,0.54,-10.05,4.61,-18.43
127367,-36.744604,174.741940,-0.80,22.66,1018.54,0.78,-0.26,0.53,4.64,-3.86,-13.24
127478,-36.744604,174.741940,-0.85,22.68,1018.55,0.91,-0.24,0.64,17.63,3.58,3.34
127589,-36.744604,174.741940,-0.87,22.70,1018.55,0.76,-0.08,0.58,3.97,0.89,7.98
127696,-36.744604,174.741940,-0.79,22.71,1018.54,0.72,-0.16,0.51,-3.16,-3.13,-12.08
127807,-36.744604,174.741940,-0.79,22.73,1018.54,0.89,-0.22,0.61,7.63,-6.42,-0.38
127918,-36.744604,174.741940,-0.82,22.74,1018.55,0.78,-0.09,0.66,-5.85,0.04,13.71
128165,-36.744602,174.741942,-0.82,22.75,1018.55,0.96,-0.19,0.68,24.34,2.54,10.90
128276,-36.744602,174.741942,-0.91,22.72,1018.56,0.80,-0.13,0.51,-3.65,2.54,-0.68
128397,-36.744602,174.741942,-0.95,22.73,1018.56,0.85,-0.22,0.46,26.41,-1.18,6.64
128505,-36.744602,174.741942,-0.87,22.75,1018.55,0.85,-0.18,0.46,31.04,-13.44,17.55
128621,-36.744602,174.741942,-0.94,22.77,1018.56,0.87,-0.20,0.38,50.98,-33.37,20.23
128733,-36.744602,174.741942,-0.94,22.78,1018.56,0.91,-0.23,0.45,86.04,-29.05,40.54
128841,-36.744602,174.741942,-0.88,22.80,1018.55,0.94,-0.22,0.41,75.80,-24.11,42.00
128961,-36.744597,174.741940,-0.88,22.80,1018.55,0.92,-0.25,0.35,73.73,-12.22,42.98
129182,-36.744597,174.741940,-0.90,22.80,1018.56,1.02,-0.38,0.34,63.00,-10.08,48.83
129283,-36.744597,174.741940,-0.91,22.76,1018.56,0.98,-0.19,0.35,112.87,-11.36,94.44
129393,-36.744597,174.741940,-0.91,22.76,1018.56,0.78,-0.02,0.60,128.73,16.38,51.15
129504,-36.744597,174.741940,-0.88,22.77,1018.55,0.77,-0.07,0.41,91.90,7.60,58.95
129614,-36.744597,174.741940,-0.84,22.79,1018.55,0.74,-0.21,0.44,74.76,1.50,38.10
129725,-36.744597,174.741940,-0.77,22.81,1018.54,0.86,-0.33,0.47,73.36,3.58,50.48
129836,-36.744597,174.741940,-0.76,22.83,1018.54,0.99,-0.29,0.47,69.58,1.32,99.07
129946,-36.744590,174.741941,-0.84,22.84,1018.55,0.94,-0.13,0.58,54.58,-41.00,81.27
130191,-36.744590,174.741941,-0.81,22.85,1018.55,0.87,-0.34,0.47,65.56,-1.79,88.34
130302,-36.744590,174.741941,-0.89,22.83,1018.56,0.88,-0.19,0.52,47.87,-9.53,95.42
130423,-36.744590,174.741941,-0.88,22.84,1018.55,0.80,0.07,0.54,23.60,-36.97,53.04
130539,-36.744590,174.741941,-0.82,22.87,1018.55,0.75,-0.02,0.78,16.84,-54.66,-18.00
130650,-36.744590,174.741941,-0.86,22.89,1018.55,0.76,-0.03,0.82,-0.48,-25.26,-18.36
130757,-36.744590,174.741941,-0.85,22.91,1018.55,0.73,-0.12,0.68,-34.14,-14.53,-44.40
130868,-36.744590,174.741941,-0.91,22.92,1018.55,0.79,-0.24,0.65,-29.02,12.36,-54.58
130993,-36.744595,174.741936,-0.87,22.93,1018.55,0.85,-0.41,0.62,1.90,30.83,-15.80
131209,-36.744595,174.741936,-0.91,22.93,1018.56,1.14,-0.45,0.55,30.13,22.36,5.72
131324,-36.744595,174.741936,-0.95,22.90,1018.56,0.98,-0.22,0.55,84.70,47.24,73.22
131446,-36.744595,174.741936,-0.89,22.90,1018.55,0.81,-0.10,0.48,34.58,35.47,89.87
131553,-36.744595,174.741936,-0.77,22.91,1018.54,0.70,0.00,0.42,10.31,4.31,65.23
131669,-36.744595,174.741936,-0.70,22.93,1018.53,0.65,0.06,0.56,-5.05,-39.17,9.01
131780,-36.744595,174.741936,-0.71,22.94,1018.54,0.78,-0.13,0.71,-14.38,-56.97,-65.74
131892,-36.744595,174.741936,-0.72,22.95,1018.54,0.73,-0.00,0.84,-3.35,-13.07,-18.12
131997,-36.744616,174.741944,-0.72,22.96,1018.54,0.65,-0.02,0.80,-58.29,-5.51,-55.68
132214,-36.744616,174.741944,-0.74,22.97,1018.54,0.78,-0.24,0.82,-68.47,42.24,-82.45
132315,-36.744616,174.741944,-0.79,22.94,1018.55,0.93,-0.30,0.84,-71.40,44.74,-49.83
132426,-36.744616,174.741944,-0.87,22.95,1018.55,1.05,-0.39,0.72,-49.14,56.38,-7.88
132537,-36.744616,174.741944,-0.79,22.97,1018.54,0.86,-0.32,0.52,-11.52,66.32,35.78
132648,-36.744616,174.741944,-0.73,22.98,1018.54,0.56,-0.09,0.47,6.78,36.93,68.71
132759,-36.744616,174.741944,-0.73,22.99,1018.53,0.53,0.02,0.46,7.87,-19.23,17.49
132870,-36.744616,174.741944,-0.63,23.00,1018.52,0.55,0.07,0.54,2.08,-50.45,-28.73
132971,-36.744618,174.741949,-0.63,23.01,1018.52,0.70,-0.06,0.84,10.74,-83.44,-90.86
133225,-36.744618,174.741949,-0.69,23.02,1018.53,0.48,-0.04,0.81,-53.83,-27.03,-84.52
133340,-36.744618,174.741949,-0.86,23.00,1018.55,0.79,-0.27,0.69,-61.09,-20.87,-74.52
133462,-36.744618,174.741949,-0.90,23.01,1018.56,0.99,-0.35,0.79,-50.48,2.84,-11.72
133577,-36.744618,174.741949,-0.94,23.04,1018.56,1.06,-0.24,0.64,-37.13,12.36,58.34
133688,-36.744618,174.741949,-0.90,23.06,1018.55,0.85,-0.10,0.70,15.25,57.72,75.72
133799,-36.744618,174.741949,-0.84,23.07,1018.55,0.64,-0.03,0.49,-10.72,32.72,72.86
133907,-36.744618,174.741949,-0.81,23.08,1018.54,0.51,0.00,0.48,4.95,6.75,17.25
134020,-36.744618,174.741950,-0.69,23.08,1018.53,0.57,0.05,0.64,-3.96,-31.91,-39.16
134230,-36.744618,174.741950,-0.67,23.08,1018.53,0.77,-0.11,0.92,-29.69,-7.34,-50.62
134341,-36.744618,174.741950,-0.75,23.06,1018.54,0.66,-0.11,0.71,-75.48,-10.14,-54.89
134463,-36.744618,174.741950,-0.81,23.07,1018.54,0.57,-0.30,0.57,-55.24,9.06,-58.97
134578,-36.744618,174.741950,-0.85,23.09,1018.55,1.11,-0.50,0.79,-17.25,12.97,-20.01
134686,-36.744618,174.741950,-0.84,23.11,1018.55,0.94,-0.42,0.64,-5.36,16.26,19.32
134797,-36.744618,174.741950,-0.83,23.13,1018.54,0.87,-0.26,0.60,38.85,36.81,58.95
134908,-36.744618,174.741950,-0.74,23.14,1018.53,0.73,-0.10,0.54,14.95,15.71,68.95
135012,-36.744624,174.741960,-0.66,23.15,1018.53,0.56,-0.08,0.45,-3.65,-10.75,33.04
135253,-36.744624,174.741960,-0.63,23.15,1018.52,1.06,-0.28,0.82,-42.80,-63.19,-94.83
135374,-36.744624,174.741960,-0.70,23.12,1018.53,0.66,-0.19,0.78,-12.00,6.56,-5.93
135482,-36.744624,174.741960,-0.79,23.12,1018.54,0.63,-0.22,0.65,-52.37,11.87,-36.66
135598,-36.744624,174.741960,-0.70,23.15,1018.53,0.65,-0.43,0.48,-34.93,15.22,-31.23
135709,-36.744624,174.741960,-0.70,23.16,1018.53,1.02,-0.52,0.59,11.35,15.16,-8.67
135820,-36.744624,174.741960,-0.67,23.18,1018.53,1.12,-0.45,0.56,14.28,9.61,7.12
135931,-36.744624,174.741960,-0.68,23.19,1018.53,0.93,-0.37,0.50,78.12,28.82,34.99
136033,-36.744639,174.741966,-0.67,23.20,1018.53,0.94,-0.21,0.61,31.71,23.88,86.27
136269,-36.744639,174.741966,-0.70,23.21,1018.53,0.61,-0.14,0.53,-40.18,-30.63,-28.06
136380,-36.744639,174.741966,-0.70,23.18,1018.53,0.67,-0.27,0.70,-31.58,-14.11,-52.75
136501,-36.744639,174.741966,-0.66,23.18,1018.53,0.91,-0.33,0.71,-32.43,-0.81,-36.72
136617,-36.744639,174.741966,-0.61,23.20,1018.52,0.64,-0.28,0.69,-39.50,16.20,-41.72
136728,-36.744639,174.741966,-0.63,23.22,1018.53,0.66,-0.39,0.54,-41.09,23.21,-39.89
136838,-36.744639,174.741966,-0.60,23.23,1018.52,0.76,-0.47,0.52,-25.24,14.67,-14.71
136955,-36.744651,174.741991,-0.63,23.25,1018.52,0.78,-0.42,0.53,-14.26,-0.33,6.09
137059,-36.744651,174.741991,-0.63,23.26,1018.52,0.87,-0.31,0.41,15.50,-14.11,25.23
137275,-36.744651,174.741991,-0.60,23.26,1018.52,0.70,-0.10,0.58,25.13,10.95,-2.69
137397,-36.744651,174.741991,-0.66,23.22,1018.53,0.83,-0.17,0.53,-16.40,15.59,-21.78
137512,-36.744651,174.741991,-0.63,23.23,1018.52,0.83,-0.35,0.48,-19.93,-5.08,-26.35
137623,-36.744651,174.741991,-0.58,23.24,1018.51,0.78,-0.34,0.55,16.10,-21.97,8.95
137731,-36.744651,174.741991,-0.53,23.26,1018.51,0.79,-0.14,0.83,13.67,-7.28,6.15
137842,-36.744651,174.741991,-0.57,23.27,1018.52,0.66,-0.00,0.74,-14.75,14.49,-1.29
137963,-36.744645,174.741984,-0.60,23.28,1018.52,0.74,-0.16,0.57,-28.65,5.34,-38.30
138065,-36.744645,174.741984,-0.65,23.29,1018.53,0.77,-0.24,0.61,-17.00,9.74,-19.71
138289,-36.744645,174.741984,-0.62,23.29,1018.52,0.74,-0.19,0.48,-48.04,7.36,-22.82
138391,-36.744645,174.741984,-0.62,23.27,1018.52,0.96,-0.23,0.48,-32.92,2.48,-25.19
138503,-36.744645,174.741984,-0.63,23.27,1018.52,0.85,-0.16,0.56,-45.24,7.66,-16.90
138625,-36.744645,174.741984,-0.61,23.29,1018.52,0.76,-0.25,0.43,-67.98,9.49,-31.35
138740,-36.744645,174.741984,-0.61,23.31,1018.53,1.01,-0.38,0.46,-49.81,13.82,-31.96
138851,-36.744645,174.741984,-0.64,23.33,1018.53,0.78,-0.35,0.44,-43.10,25.16,-6.78
138974,-36.744639,174.741979,-0.66,23.34,1018.53,0.90,-0.43,0.43,-53.65,32.42,-20.93
139075,-36.744639,174.741979,-0.67,23.35,1018.52,0.88,-0.42,0.48,-55.48,35.59,-14.71
139294,-36.744639,174.741979,-0.63,23.36,1018.52,0.76,-0.32,0.45,-71.33,60.22,-19.46
139415,-36.744639,174.741979,-0.63,23.32,1018.52,0.79,-0.37,0.53,-123.77,26.75,-58.67
139530,-36.744639,174.741979,-0.61,23.33,1018.52,0.80,-0.60,0.34,-107.43,16.26,-26.54
139641,-36.744639,174.741979,-0.62,23.35,1018.52,0.63,-0.56,0.39,-60.42,46.93,-12.51
139752,-36.744639,174.741979,-0.59,23.37,1018.51,0.53,-0.61,0.22,3.36,60.95,-45.86
139863,-36.744639,174.741979,-0.53,23.39,1018.51,0.75,-0.62,0.44,-53.16,30.71,-43.91
139983,-36.744629,174.741979,-0.57,23.40,1018.52,0.74,-0.50,0.40,-51.70,26.02,-23.85
140084,-36.744629,174.741979,-0.58,23.42,1018.52,0.79,-0.53,0.38,-28.71,27.60,-39.83
140300,-36.744629,174.741979,-0.58,23.42,1018.52,0.82,-0.54,0.47,-25.05,23.27,-30.80
140411,-36.744629,174.741979,-0.67,23.39,1018.53,0.70,-0.55,0.41,-30.85,19.43,-22.75
140532,-36.744629,174.741979,-0.69,23.41,1018.53,0.62,-0.56,0.42,-29.44,22.42,-19.83
140648,-36.744629,174.741979,-0.62,23.43,1018.53,0.81,-0.54,0.38,-26.40,14.13,-15.74
140756,-36.744629,174.741979,-0.67,23.45,1018.52,0.71,-0.53,0.39,-18.35,-1.36,-21.60
140867,-36.744629,174.741979,-0.60,23.46,1018.52,0.79,-0.47,0.48,0.80,6.32,-12.94
140968,-36.744634,174.741979,-0.64,23.47,1018.53,0.80,-0.44,0.48,-4.14,4.55,-13.91
141091,-36.744634,174.741979,-0.60,23.47,1018.52,0.78,-0.41,0.48,-2.37,4.61,-9.22
141301,-36.744634,174.741979,-0.61,23.48,1018.52,0.79,-0.37,0.50,7.26,6.08,-6.41
141418,-36.744634,174.741979,-0.74,23.45,1018.54,0.79,-0.33,0.49,0.01,3.94,-2.27
141522,-36.744634,174.741979,-0.72,23.46,1018.53,0.78,-0.37,0.47,-0.60,-1.67,-2.69
141633,-36.744634,174.741979,-0.69,23.48,1018.53,0.78,-0.38,0.48,8.12,-6.24,4.62
141743,-36.744634,174.741979,-0.64,23.49,1018.52,0.78,-0.39,0.45,20.80,-17.83,5.60
141854,-36.744634,174.741979,-0.68,23.50,1018.53,0.82,-0.43,0.45,47.20,-12.76,13.40
141978,-36.744656,174.741989,-0.63,23.52,1018.52,0.84,-0.41,0.42,32.93,-16.42,31.03
142100,-36.744656,174.741989,-0.59,23.53,1018.52,0.87,-0.42,0.21,65.68,-34.05,30.60
142311,-36.744656,174.741989,-0.55,23.53,1018.52,0.86,-0.34,0.21,143.36,-38.07,50.72
142413,-36.744656,174.741989,-0.58,23.50,1018.52,0.96,-0.32,0.27,165.37,-36.79,55.23
142524,-36.744656,174.741989,-0.68,23.51,1018.53,1.05,-0.35,0.41,114.95,-25.57,45.42
142635,-36.744656,174.741989,-0.59,23.52,1018.52,0.93,-0.08,0.52,74.82,-16.12,95.96
142746,-36.744656,174.741989,-0.54,23.53,1018.51,0.86,-0.01,0.48,57.63,-10.26,62.67
142857,-36.744656,174.741989,-0.52,23.54,1018.51,0.62,-0.11,0.54,55.01,-10.26,25.90
142981,-36.744698,174.742003,-0.56,23.55,1018.52,0.71,-0.49,0.56,56.96,-3.13,11.03
143083,-36.744698,174.742003,-0.57,23.56,1018.52,0.92,-0.60,0.62,54.21,14.92,51.70
143322,-36.744698,174.742003,-0.59,23.57,1018.52,1.13,-0.29,0.08,86.65,-56.85,43.46
143431,-36.744698,174.742003,-0.57,23.54,1018.52,0.96,-0.27,0.33,141.71,56.56,53.04
143553,-36.744698,174.742003,-0.57,23.55,1018.52,0.60,-0.28,0.58,68.42,22.42,66.39
143668,-36.744698,174.742003,-0.53,23.58,1018.51,0.63,-0.18,0.78,57.81,4.13,76.82
143779,-36.744698,174.742003,-0.50,23.60,1018.51,0.62,-0.15,0.73,26.71,-43.31,66.51
143887,-36.744698,174.742003,-0.51,23.61,1018.51,0.57,-0.31,0.69,50.92,-44.59,39.44
143995,-36.744701,174.742014,-0.54,23.63,1018.51,0.60,-0.27,0.81,46.96,-33.19,34.20
144106,-36.744701,174.742014,-0.53,23.64,1018.51,0.49,-0.11,0.71,28.91,-73.01,54.44
144345,-36.744701,174.742014,-0.55,23.65,1018.51,0.79,-0.12,0.71,16.17,-27.22,21.51
144456,-36.744701,174.742014,-0.63,23.62,1018.52,0.73,-0.16,0.59,11.78,-8.50,1.94
144562,-36.744701,174.742014,-0.60,23.63,1018.52,0.87,-0.25,0.53,-16.58,-18.98,-26.11
144672,-36.744701,174.742014,-0.58,23.64,1018.52,0.85,-0.32,0.49,-4.38,0.71,-22.02
144783,-36.744701,174.742014,-0.63,23.66,1018.52,0.92,-0.33,0.51,-20.85,2.78,-2.39
144894,-36.744701,174.742014,-0.62,23.68,1018.52,0.76,-0.31,0.47,-32.98,6.38,2.98
144996,-36.744712,174.742021,-0.57,23.69,1018.52,0.76,-0.31,0.55,-24.26,10.65,-5.56
145101,-36.744712,174.742021,-0.59,23.70,1018.52,0.81,-0.29,0.58,-35.18,14.49,-20.07
145351,-36.744712,174.742021,-0.57,23.71,1018.52,0.75,-0.19,0.49,-45.60,30.77,-65.56
145457,-36.744712,174.742021,-0.60,23.69,1018.52,0.96,-0.22,0.57,-42.07,17.36,-61.35
145568,-36.744712,174.742021,-0.55,23.70,1018.51,0.76,-0.14,0.60,-35.85,13.09,-36.11
145679,-36.744712,174.742021,-0.54,23.71,1018.51,0.75,-0.03,0.66,-37.86,9.55,-25.01
145789,-36.744712,174.742021,-0.53,23.73,1018.51,0.63,-0.02,0.63,-34.99,5.34,-30.80
145900,-36.744712,174.742021,-0.54,23.75,1018.51,0.74,-0.07,0.66,-45.42,4.80,-37.39
146002,-36.744720,174.742023,-0.56,23.76,1018.51,0.73,-0.08,0.68,-74.81,-2.34,-16.54
146110,-36.744720,174.742023,-0.55,23.78,1018.52,0.71,-0.03,0.67,-92.55,5.10,-24.64
146360,-36.744720,174.742023,-0.60,23.79,1018.52,1.33,-0.41,0.50,-139.44,35.95,-28.00
146471,-36.744720,174.742023,-0.65,23.76,1018.53,0.89,-0.40,0.34,-51.46,116.75,-4.22
146582,-36.744720,174.742023,-0.60,23.76,1018.52,0.72,-0.36,0.26,-45.66,95.16,-11.96
146693,-36.744720,174.742023,-0.48,23.78,1018.51,0.64,-0.27,0.43,-40.24,52.30,-36.47
146804,-36.744720,174.742023,-0.49,23.80,1018.51,0.55,-0.13,0.69,-87.19,10.59,-102.51
146906,-36.744720,174.742023,-0.50,23.81,1018.51,0.82,-0.27,0.64,-61.64,57.48,-148.85
147019,-36.744711,174.742030,-0.50,23.82,1018.51,1.20,-0.54,0.42,0.50,116.32,-159.58
147134,-36.744711,174.742030,-0.53,23.84,1018.51,0.80,-0.47,0.34,-46.15,9.61,-127.88
147373,-36.744711,174.742030,-0.50,23.84,1018.51,0.70,-0.09,0.62,-19.44,-22.64,10.36
147477,-36.744711,174.742030,-0.53,23.81,1018.51,0.58,-0.08,0.60,15.68,-17.83,41.94
147588,-36.744711,174.742030,-0.51,23.81,1018.51,0.64,-0.16,0.57,5.62,-9.05,81.70
147697,-36.744711,174.742030,-0.49,23.82,1018.51,0.81,-0.15,0.64,18.12,28.39,65.05
147804,-36.744711,174.742030,-0.54,23.84,1018.52,0.79,-0.27,0.65,15.68,34.61,17.86
147915,-36.744711,174.742030,-0.61,23.86,1018.52,0.56,-0.30,0.89,40.13,41.69,-7.45
148017,-36.744663,174.742040,-0.64,23.87,1018.53,0.48,-0.22,1.15,1.96,33.21,-38.85
148133,-36.744663,174.742040,-0.67,23.89,1018.53,0.37,-0.02,1.01,61.65,85.41,-30.38
148394,-36.744663,174.742040,-0.70,23.90,1018.53,0.21,0.36,1.08,38.42,57.42,23.71
148496,-36.744663,174.742040,-0.72,23.87,1018.54,0.06,0.40,0.89,43.91,64.86,-1.90
148607,-36.744663,174.742040,-0.82,23.88,1018.55,0.02,0.40,0.81,14.52,16.81,14.26
148718,-36.744663,174.742040,-0.89,23.90,1018.55,-0.02,0.39,0.84,17.02,11.50,13.40
148829,-36.744663,174.742040,-0.89,23.92,1018.56,0.01,0.40,0.94,2.51,6.99,3.95
148942,-36.744660,174.742110,-0.89,23.94,1018.56,-0.04,0.42,0.96,2.26,26.63,-5.74
149053,-36.744660,174.742110,-0.95,23.96,1018.56,0.10,0.52,0.91,14.89,41.20,51.70
149163,-36.744660,174.742110,-0.93,23.97,1018.56,-0.10,0.32,0.87,-14.69,17.05,17.12
149410,-36.744660,174.742110,-0.98,23.98,1018.57,0.13,0.23,0.93,-53.71,-4.59,-5.38
149520,-36.744660,174.742110,-1.06,23.94,1018.58,-0.47,-0.13,1.40,22.02,33.15,-23.61
149642,-36.744660,174.742110,-1.04,23.95,1018.57,-0.08,-0.05,1.06,30.56,-9.84,-15.13
149758,-36.744660,174.742110,-1.07,23.96,1018.58,0.05,-0.11,1.16,-30.54,40.41,41.76
149868,-36.744660,174.742110,-1.02,23.98,1018.57,-0.00,-0.20,1.18,-2.61,15.83,13.22
149970,-36.744678,174.742119,-1.02,23.98,1018.57,-0.05,-0.05,0.98,5.37,15.89,-16.90
150072,-36.744678,174.742119,-0.98,23.99,1018.57,0.03,-0.03,0.71,6.78,1.81,110.66
150183,-36.744678,174.742119,-0.95,24.00,1018.57,0.05,-0.20,1.03,3.30,51.63,38.34
150422,-36.744678,174.742119,-1.00,24.00,1018.57,-0.01,-0.14,1.00,-0.18,-3.80,28.04
150533,-36.744678,174.742119,-1.02,23.97,1018.57,-0.01,-0.14,1.00,-0.24,-0.20,-0.13
150644,-36.744678,174.742119,-0.97,23.97,1018.57,-0.01,-0.15,1.00,0.31,0.22,-0.01
150755,-36.744678,174.742119,-0.97,23.98,1018.57,0.00,-0.15,1.00,0.19,0.10,0.11
150864,-36.744678,174.742119,-0.95,23.99,1018.57,-0.01,-0.14,1.00,0.07,0.04,-0.07
150979,-36.744683,174.742131,-0.88,23.99,1018.55,-0.00,-0.15,1.00,-0.18,-0.20,-0.25
151090,-36.744683,174.742131,-0.89,24.00,1018.56,-0.01,-0.15,1.00,0.19,0.28,-0.07
151201,-36.744683,174.742131,-0.88,24.01,1018.55,0.00,-0.15,1.00,0.19,0.10,0.05
151445,-36.744683,174.742131,-0.87,24.01,1018.55,-0.01,-0.14,1.00,-0.18,-0.20,-0.07
151555,-36.744683,174.742131,-0.94,23.97,1018.56,-0.01,-0.15,1.00,0.19,0.16,-0.01
151657,-36.744683,174.742131,-0.92,23.97,1018.56,-0.05,-0.13,1.03,-0.24,-4.59,15.17
151768,-36.744683,174.742131,-0.88,23.99,1018.56,0.00,-0.18,1.01,-0.24,-2.03,11.03
151879,-36.744683,174.742131,-0.89,24.00,1018.55,-0.01,-0.14,1.00,-0.05,-0.08,-0.01
151987,-36.744685,174.742144,-0.90,24.01,1018.56,-0.01,-0.15,1.00,0.07,-0.14,0.05
152097,-36.744685,174.742144,-0.82,24.02,1018.54,-0.01,-0.15,1.00,-0.11,0.04,-0.01
152208,-36.744685,174.742144,-0.80,24.02,1018.55,-0.01,-0.15,1.00,0.01,-0.08,-0.01
152450,-36.744685,174.742144,-0.78,24.03,1018.54,-0.01,-0.14,1.00,-0.11,-0.33,0.05
152561,-36.744685,174.742144,-0.84,23.99,1018.55,-0.01,-0.14,0.99,0.01,0.71,-0.01
152682,-36.744685,174.742144,-0.82,23.99,1018.54,-0.00,-0.15,1.00,-0.05,-0.14,-0.01
152798,-36.744685,174.742144,-0.78,24.01,1018.54,-0.12,-0.18,1.11,0.86,-4.29,5.17
152909,-36.744685,174.742144,-0.76,24.02,1018.54,0.03,0.07,1.03,207.75,61.75,101.57
153021,-36.744682,174.742143,-0.73,24.04,1018.54,-0.21,0.21,0.91,-46.15,94.92,-6.35
153129,-36.744682,174.742143,-0.75,24.05,1018.54,-0.28,0.26,0.81,-0.42,45.71,3.28
153240,-36.744682,174.742143,-0.75,24.06,1018.54,-0.29,0.29,0.91,-1.03,1.75,0.96
153462,-36.744682,174.742143,-0.78,24.06,1018.54,-0.27,0.27,0.95,-12.25,-7.89,-2.27
153572,-36.744682,174.742143,-0.87,24.02,1018.55,-0.23,0.21,0.97,-29.57,-35.94,-6.23
153683,-36.744682,174.742143,-0.86,24.03,1018.55,-0.12,0.12,1.08,-14.87,-78.56,3.95
153805,-36.744682,174.742143,-0.81,24.04,1018.54,-0.30,-0.08,1.46,-41.46,-2.03,8.77
153921,-36.744682,174.742143,-0.76,24.05,1018.54,0.17,0.25,0.42,-206.64,8.64,-3.91
154037,-36.744683,174.742133,-0.81,24.06,1018.55,-0.03,-0.17,1.04,1.90,6.20,-1.60
154145,-36.744683,174.742133,-0.81,24.07,1018.55,-0.08,-0.11,1.04,-0.11,-2.28,0.11
154256,-36.744683,174.742133,-0.84,24.08,1018.55,-0.03,-0.15,1.02,0.13,1.87,0.05
154472,-36.744683,174.742133,-0.85,24.08,1018.55,0.00,-0.14,0.99,-0.24,0.59,-0.07
154583,-36.744683,174.742133,-0.90,24.05,1018.56,0.00,-0.13,0.99,-0.05,-0.33,-0.07
154705,-36.744683,174.742133,-0.90,24.05,1018.56,0.00,-0.14,0.99,-0.05,-0.26,-0.01
154812,-36.744683,174.742133,-0.89,24.06,1018.55,-0.00,-0.15,1.00,-0.05,0.41,0.05
154928,-36.744683,174.742133,-0.87,24.07,1018.55,-0.06,-0.10,1.01,-0.18,-3.07,30.78
155041,-36.744679,174.742125,-0.78,24.08,1018.54,-0.04,-0.13,1.01,-0.11,-0.14,0.48
155151,-36.744679,174.742125,-0.77,24.09,1018.54,-0.20,-0.14,1.23,0.50,20.41,-7.82
155262,-36.744679,174.742125,-0.72,24.09,1018.54,-0.11,-0.13,1.08,-1.33,-8.25,4.75
155484,-36.744679,174.742125,-0.71,24.09,1018.53,-0.13,-0.09,1.09,-0.36,-47.83,181.51
155585,-36.744679,174.742125,-0.81,24.06,1018.55,-0.07,-0.15,1.02,0.25,-1.85,17.43
155696,-36.744679,174.742125,-0.87,24.06,1018.55,0.02,-0.19,0.99,10.74,15.53,-7.51
155807,-36.744679,174.742125,-0.87,24.07,1018.55,-0.03,-0.11,1.00,9.09,15.10,25.29
155918,-36.744679,174.742125,-0.89,24.08,1018.55,-0.00,-0.08,0.90,-2.13,-26.24,13.95
156020,-36.744676,174.742114,-0.85,24.09,1018.55,0.17,-0.18,0.81,-154.63,2.48,3.53
156135,-36.744676,174.742114,-0.81,24.10,1018.55,0.01,-0.37,0.90,-4.20,40.04,13.04
156243,-36.744676,174.742114,-0.85,24.11,1018.55,0.05,-0.09,0.96,35.43,-14.53,86.64
156482,-36.744676,174.742114,-0.77,24.12,1018.54,-0.00,-0.11,0.99,-0.79,-6.67,24.50
156593,-36.744676,174.742114,-0.85,24.08,1018.55,-0.00,-0.14,0.99,0.31,1.44,-0.38
156714,-36.744676,174.742114,-0.87,24.08,1018.55,-0.02,-0.16,1.01,0.37,6.63,-40.74
156830,-36.744676,174.742114,-0.88,24.10,1018.55,-0.01,-0.14,1.00,-0.42,-0.51,0.05
156943,-36.744650,174.742106,-0.84,24.11,1018.55,0.01,-0.14,0.99,0.43,0.95,-0.07
157044,-36.744650,174.742106,-0.89,24.11,1018.55,-0.01,-0.14,1.01,-0.05,0.47,-0.07
157157,-36.744650,174.742106,-0.86,24.11,1018.55,0.22,-0.24,0.65,-7.31,3.03,-25.19
157264,-36.744650,174.742106,-0.85,24.12,1018.55,0.03,-0.25,1.00,0.19,14.43,1.39
157503,-36.744650,174.742106,-0.86,24.12,1018.55,0.01,-0.16,0.98,1.23,6.99,-3.00
157613,-36.744650,174.742106,-0.95,24.09,1018.56,0.02,-0.16,0.99,-0.79,6.38,-52.94
157724,-36.744650,174.742106,-0.93,24.09,1018.56,-0.00,-0.13,1.00,-0.72,-3.68,0.17
157826,-36.744650,174.742106,-0.95,24.10,1018.56,-0.00,-0.13,1.01,0.19,1.99,0.29
157939,-36.744646,174.742086,-0.92,24.12,1018.56,0.04,-0.13,0.97,-0.11,6.02,0.60
158050,-36.744646,174.742086,-0.88,24.13,1018.56,0.01,-0.14,1.01,0.19,0.53,-0.19
158160,-36.744646,174.742086,-0.90,24.14,1018.56,-0.05,-0.15,1.04,-0.79,-8.13,-1.05
158271,-36.744646,174.742086,-0.87,24.14,1018.55,0.00,-0.13,1.00,-0.05,-0.02,-0.07
158510,-36.744646,174.742086,-0.83,24.15,1018.55,-0.10,-0.18,1.10,0.01,-13.07,66.76
158621,-36.744646,174.742086,-0.93,24.11,1018.56,0.26,-0.13,0.49,-13.83,29.92,12.79
158723,-36.744646,174.742086,-0.97,24.11,1018.56,-0.01,-0.16,1.01,0.74,2.42,6.88
158834,-36.744646,174.742086,-0.90,24.13,1018.55,0.01,-0.15,1.00,-0.18,-0.87,-0.19
158954,-36.744562,174.742167,-0.81,24.14,1018.55,0.01,-0.15,1.00,0.19,-0.26,-0.01
159057,-36.744562,174.742167,-0.83,24.15,1018.55,-0.00,-0.13,1.00,-0.54,-0.33,-0.07
159168,-36.744562,174.742167,-0.87,24.16,1018.55,-0.00,-0.14,1.00,0.50,0.22,0.11
159279,-36.744562,174.742167,-0.88,24.16,1018.55,0.00,-0.15,1.00,-0.11,-1.42,0.78
159526,-36.744562,174.742167,-0.82,24.17,1018.55,0.00,-0.14,1.00,-0.48,0.04,-0.07
159636,-36.744562,174.742167,-0.90,24.13,1018.56,-0.01,-0.13,1.00,0.25,0.41,0.17
159747,-36.744562,174.742167,-0.90,24.13,1018.56,-0.01,-0.14,1.00,0.25,0.16,0.17
159858,-36.744562,174.742167,-0.93,24.14,1018.56,-0.01,-0.14,1.00,-0.30,-0.33,0.05
159982,-36.744552,174.742172,-0.89,24.16,1018.56,-0.01,-0.14,1.00,0.19,0.16,0.11
160093,-36.744552,174.742172,-0.82,24.17,1018.54,-0.01,-0.14,1.00,-0.11,0.16,-0.07
160201,-36.744552,174.742172,-0.79,24.18,1018.54,-0.00,-0.14,1.00,-0.24,-0.20,-0.01
160313,-36.744552,174.742172,-0.81,24.18,1018.55,-0.01,-0.14,1.00,-0.18,-0.20,-0.07
160532,-36.744552,174.742172,-0.87,24.18,1018.55,-0.01,-0.14,1.01,0.01,0.59,0.05
160643,-36.744552,174.742172,-0.92,24.14,1018.56,-0.01,-0.14,1.00,0.07,0.41,-0.01
160764,-36.744552,174.742172,-0.90,24.15,1018.56,-0.01,-0.14,1.00,-0.30,-0.69,-0.13
160880,-36.744552,174.742172,-0.92,24.16,1018.56,-0.00,-0.14,1.00,0.68,2.42,0.60
160995,-36.744550,174.742179,-0.90,24.17,1018.56,0.00,-0.14,1.00,0.13,-0.02,-0.01
161106,-36.744550,174.742179,-0.87,24.18,1018.55,-0.01,-0.14,1.01,0.01,0.04,0.05
161217,-36.744550,174.742179,-0.84,24.19,1018.55,-0.01,-0.14,1.00,-0.11,0.04,-0.07
161327,-36.744550,174.742179,-0.88,24.19,1018.55,-0.01,-0.14,1.01,-0.11,-0.02,-0.01
161549,-36.744550,174.742179,-0.84,24.19,1018.55,-0.00,-0.14,1.00,0.01,-0.02,0.05
161659,-36.744550,174.742179,-0.88,24.15,1018.55,-0.01,-0.14,1.00,0.01,0.04,0.11
161781,-36.744550,174.742179,-0.90,24.16,1018.55,-0.01,-0.14,1.00,0.01,-0.02,0.05
161888,-36.744550,174.742179,-0.88,24.17,1018.56,-0.01,-0.14,1.00,-0.05,-0.08,-0.01
162001,-36.744548,174.742185,-0.86,24.18,1018.55,-0.00,-0.14,1.00,-0.11,0.04,-0.07
162117,-36.744548,174.742185,-0.83,24.19,1018.55,-0.00,-0.14,1.00,0.01,0.04,-0.07
162228,-36.744548,174.742185,-0.84,24.20,1018.55,-0.01,-0.14,1.00,-0.11,-0.02,-0.07
162338,-36.744548,174.742185,-0.84,24.20,1018.55,-0.01,-0.14,1.00,-0.11,0.04,-0.01
162555,-36.744548,174.742185,-0.84,24.21,1018.55,-0.01,-0.14,1.00,0.01,-0.08,-0.07
162657,-36.744548,174.742185,-0.86,24.17,1018.55,-0.01,-0.14,1.00,-0.11,-0.02,-0.01
162767,-36.744548,174.742185,-0.89,24.17,1018.55,-0.01,-0.14,1.00,0.13,-0.02,-0.07
162878,-36.744548,174.742185,-0.90,24.18,1018.56,-0.01,-0.14,1.00,-0.05,-0.08,-0.01
162985,-36.744548,174.742185,-0.91,24.19,1018.55,-0.01,-0.14,1.00,-0.05,0.04,-0.13
163101,-36.744548,174.742185,-0.88,24.20,1018.56,-0.01,-0.14,1.00,0.07,0.04,-0.13
163211,-36.744548,174.742185,-0.86,24.21,1018.55,-0.01,-0.14,1.00,0.01,-0.08,-0.07
163319,-36.744548,174.742185,-0.86,24.22,1018.55,-0.01,-0.14,1.00,0.07,-0.08,-0.01
163570,-36.744548,174.742185,-0.84,24.22,1018.55,-0.01,-0.14,1.00,0.01,-0.14,0.05
163671,-36.744548,174.742185,-0.90,24.18,1018.56,-0.01,-0.14,1.00,-0.05,-0.02,-0.01
163782,-36.744548,174.742185,-0.89,24.18,1018.55,-0.01,-0.14,1.00,0.01,0.10,-0.01
163893,-36.744548,174.742185,-0.89,24.19,1018.55,-0.01,-0.14,1.00,-0.05,-0.08,0.05
163994,-36.744548,174.742185,-0.83,24.20,1018.55,-0.01,-0.14,1.00,0.01,0.10,0.05
164101,-36.744548,174.742185,-0.84,24.22,1018.55,-0.01,-0.14,1.00,-0.11,-0.02,0.05
164217,-36.744548,174.742185,-0.80,24.22,1018.55,-0.01,-0.14,1.00,0.01,-0.08,-0.07
164328,-36.744548,174.742185,-0.80,24.23,1018.55,-0.01,-0.14,1.00,0.01,0.04,0.05
164567,-36.744548,174.742185,-0.81,24.23,1018.55,-0.01,-0.14,1.00,-0.11,0.04,-0.19
164678,-36.744548,174.742185,-0.85,24.20,1018.55,-0.01,-0.14,1.00,-0.05,-0.08,-0.07
164799,-36.744548,174.742185,-0.84,24.20,1018.55,-0.01,-0.13,1.00,-0.11,0.10,-0.01
164907,-36.744548,174.742185,-0.82,24.21,1018.55,-0.08,-0.15,1.06,-0.97,-5.14,1.33
165012,-36.744548,174.742185,-0.75,24.22,1018.54,0.01,-0.15,1.00,0.13,0.65,0.05
165134,-36.744548,174.742185,-0.74,24.22,1018.54,-0.00,-0.14,1.00,0.01,-0.08,0.17
165250,-36.744548,174.742185,-0.70,24.23,1018.53,-0.04,-0.13,1.02,-1.64,-15.02,16.51
165360,-36.744548,174.742185,-0.74,24.24,1018.54,0.00,-0.13,1.00,0.56,2.11,0.78
165582,-36.744548,174.742185,-0.75,24.24,1018.54,-0.03,-0.14,1.03,0.13,-0.26,0.11
165692,-36.744548,174.742185,-0.88,24.20,1018.55,-0.00,-0.14,1.00,-0.30,-0.69,-0.13
165795,-36.744548,174.742185,-0.91,24.21,1018.55,-0.19,-0.04,0.95,-4.69,-16.67,33.40
165905,-36.744548,174.742185,-0.90,24.22,1018.56,0.02,-0.23,1.00,1.04,0.22,72.43
166017,-36.744548,174.742185,-0.88,24.23,1018.55,0.08,-0.08,1.09,2.32,4.92,29.07
166128,-36.744548,174.742185,-0.88,24.24,1018.56,0.02,-0.13,1.00,0.50,3.21,25.29
166239,-36.744548,174.742185,-0.89,24.25,1018.55,0.02,-0.14,1.00,0.07,-2.52,15.54
166350,-36.744548,174.742185,-0.88,24.26,1018.55,0.06,-0.12,0.94,-1.46,-9.66,5.42
166591,-36.744548,174.742185,-0.81,24.26,1018.55,-0.00,-0.14,1.01,-0.79,-7.28,5.72
